{
  "name": "Subjects With Adverse Events by System Organ Class and Preferred Term",
  "id": "FDA-AE-T36",
  "mainListOfContents": {
    "name": "List of Planned Analyses",
    "label": "LOPA",
    "contentsList": {
      "listItems": [
        {
          "name": "Subjects With Adverse Events by System Organ Class and Preferred Term",
          "level": 1,
          "order": 1,
          "outputId": "Out_05",
          "sublist": {
            "listItems": [
              {
                "name": "    Summary of Subjects by Treatment",
                "level": 2,
                "order": 1,
                "analysisId": "An_51"
              },
              {
                "name": "    Subjects with at least one TEAE [4]",
                "level": 2,
                "order": 2,
                "sublist": {
                  "listItems": [
                    {
                      "name": "        Summary of subjects with at least one TEAE by Treatment",
                      "level": 3,
                      "order": 1,
                      "analysisId": "An_52"
                    },
                    {
                      "name": "        Comparison of subjects with at least one TEAE, Xanomeline Low Dose vs Placebo",
                      "level": 3,
                      "order": 2,
                      "analysisId": "An_53"
                    },
                    {
                      "name": "        Comparison of subjects with at least one TEAE, Xanomeline High Dose vs Placebo",
                      "level": 3,
                      "order": 3,
                      "analysisId": "An_53_1"
                    }
                  ]
                }
              },
              {
                "name": "    SOC {alphabetical order}",
                "level": 2,
                "order": 3,
                "sublist": {
                  "listItems": [
                    {
                      "name": "        Summary of subjects by Treatment and SOC",
                      "level": 3,
                      "order": 1,
                      "analysisId": "An_54"
                    },
                    {
                      "name": "        Comparison of subjects by SOC, Xanomeline Low Dose vs Placebo",
                      "level": 3,
                      "order": 2,
                      "analysisId": "An_55"
                    },
                    {
                      "name": "        Comparison of subjects by SOC, Xanomeline High Dose vs Placebo",
                      "level": 3,
                      "order": 3,
                      "analysisId": "An_55_1"
                    }
                  ]
                }
              },
              {
                "name": "    PT {alphabetical order}",
                "level": 2,
                "order": 4,
                "sublist": {
                  "listItems": [
                    {
                      "name": "        Summary of subjects by Treatment and PT",
                      "level": 3,
                      "order": 1,
                      "analysisId": "An_56"
                    },
                    {
                      "name": "        Comparison of subjects by PT, Xanomeline Low Dose vs Placebo",
                      "level": 3,
                      "order": 2,
                      "analysisId": "An_57"
                    },
                    {
                      "name": "        Comparison of subjects by PT, Xanomeline High Dose vs Placebo",
                      "level": 3,
                      "order": 3,
                      "analysisId": "An_57_1"
                    }
                  ]
                }
              }
            ]
          }
        }
      ]
    }
  },
  "version": 1,
  "otherListsOfContents": [
    {
      "name": "List of Planned Outputs",
      "label": "LOPO",
      "contentsList": {
        "listItems": [
          {
            "name": "Subjects With Adverse Events by System Organ Class and Preferred Term",
            "level": 1,
            "order": 1,
            "outputId": "Out_05"
          }
        ]
      }
    }
  ],
  "terminologyExtensions": [
    {
      "id": "TermEx01",
      "sponsorTerms": [
        {
          "id": "TermEx01_01",
          "submissionValue": "POPULATION SUMMARY",
          "description": "Summary statistics describing the study population(s)."
        }
      ],
      "enumeration": "AnalysisPurposeEnum"
    }
  ],
  "analysisOutputCategorizations": [
    {
      "id": "ANSET",
      "categories": [
        {
          "id": "ANSET_01",
          "label": "Safety",
          "subCategorizations": [
            {
              "id": "ANSET_01_ANINT",
              "categories": [
                {
                  "id": "ANSET_01_ANINT_05",
                  "label": "Adverse Events"
                }
              ],
              "label": "Safety Analysis Of Interest"
            }
          ]
        }
      ],
      "label": "Analysis Sets"
    }
  ],
  "analysisSets": [
    {
      "name": "Safety Population",
      "description": "All patients randomized and known to have taken at least one dose of randomized drug.",
      "id": "AnalysisSet_01",
      "level": 1,
      "order": 1,
      "condition": {
        "dataset": "ADSL",
        "variable": "SAFFL",
        "comparator": "EQ",
        "value": [
          "Y"
        ]
      }
    }
  ],
  "dataSubsets": [
    {
      "name": "1st Occurrence of Any AE",
      "id": "Dss_15",
      "level": 1,
      "order": 1,
      "condition": {
        "dataset": "ADAE",
        "variable": "AOCCFL",
        "comparator": "EQ",
        "value": [
          "Y"
        ]
      }
    },
    {
      "name": "1st Occurrence of SOC",
      "id": "Dss_16",
      "level": 1,
      "order": 1,
      "condition": {
        "dataset": "ADAE",
        "variable": "AOCCSFL",
        "comparator": "EQ",
        "value": [
          "Y"
        ]
      }
    },
    {
      "name": "1st Occurrence of Preferred Term",
      "id": "Dss_17",
      "level": 1,
      "order": 1,
      "condition": {
        "dataset": "ADAE",
        "variable": "AOCCPFL",
        "comparator": "EQ",
        "value": [
          "Y"
        ]
      }
    },
    {
      "name": "1st Occurrence of Any AE, Xanomeline Low Dose or Placebo",
      "id": "Dss_73",
      "level": 1,
      "order": 1,
      "compoundExpression": {
        "logicalOperator": "AND",
        "whereClauses": [
          {
            "level": 2,
            "order": 1,
            "condition": {
              "dataset": "ADAE",
              "variable": "AOCCFL",
              "comparator": "EQ",
              "value": [
                "Y"
              ]
            }
          },
          {
            "level": 2,
            "order": 2,
            "condition": {
              "dataset": "ADAE",
              "variable": "TRTAN",
              "comparator": "IN",
              "value": [
                "1",
                "3"
              ]
            }
          }
        ]
      }
    },
    {
      "name": "1st Occurrence of Any AE, Xanomeline High Dose or Placebo",
      "id": "Dss_74",
      "level": 1,
      "order": 1,
      "compoundExpression": {
        "logicalOperator": "AND",
        "whereClauses": [
          {
            "level": 2,
            "order": 1,
            "condition": {
              "dataset": "ADAE",
              "variable": "AOCCFL",
              "comparator": "EQ",
              "value": [
                "Y"
              ]
            }
          },
          {
            "level": 2,
            "order": 2,
            "condition": {
              "dataset": "ADAE",
              "variable": "TRTAN",
              "comparator": "IN",
              "value": [
                "2",
                "3"
              ]
            }
          }
        ]
      }
    },
    {
      "name": "1st Occurrence of SOC, Xanomeline Low Dose or Placebo",
      "id": "Dss_75",
      "level": 1,
      "order": 1,
      "compoundExpression": {
        "logicalOperator": "AND",
        "whereClauses": [
          {
            "level": 2,
            "order": 1,
            "condition": {
              "dataset": "ADAE",
              "variable": "AOCCSFL",
              "comparator": "EQ",
              "value": [
                "Y"
              ]
            }
          },
          {
            "level": 2,
            "order": 2,
            "condition": {
              "dataset": "ADAE",
              "variable": "TRTAN",
              "comparator": "IN",
              "value": [
                "1",
                "3"
              ]
            }
          }
        ]
      }
    },
    {
      "name": "1st Occurrence of SOC, Xanomeline High Dose or Placebo",
      "id": "Dss_76",
      "level": 1,
      "order": 1,
      "compoundExpression": {
        "logicalOperator": "AND",
        "whereClauses": [
          {
            "level": 2,
            "order": 1,
            "condition": {
              "dataset": "ADAE",
              "variable": "AOCCSFL",
              "comparator": "EQ",
              "value": [
                "Y"
              ]
            }
          },
          {
            "level": 2,
            "order": 2,
            "condition": {
              "dataset": "ADAE",
              "variable": "TRTAN",
              "comparator": "IN",
              "value": [
                "2",
                "3"
              ]
            }
          }
        ]
      }
    },
    {
      "name": "1st Occurrence of Preferred Term, Xanomeline Low Dose or Placebo",
      "id": "Dss_77",
      "level": 1,
      "order": 1,
      "compoundExpression": {
        "logicalOperator": "AND",
        "whereClauses": [
          {
            "level": 2,
            "order": 1,
            "condition": {
              "dataset": "ADAE",
              "variable": "AOCCPFL",
              "comparator": "EQ",
              "value": [
                "Y"
              ]
            }
          },
          {
            "level": 2,
            "order": 2,
            "condition": {
              "dataset": "ADAE",
              "variable": "TRTAN",
              "comparator": "IN",
              "value": [
                "1",
                "3"
              ]
            }
          }
        ]
      }
    },
    {
      "name": "1st Occurrence of Preferred Term, Xanomeline High Dose or Placebo",
      "id": "Dss_78",
      "level": 1,
      "order": 1,
      "compoundExpression": {
        "logicalOperator": "AND",
        "whereClauses": [
          {
            "level": 2,
            "order": 1,
            "condition": {
              "dataset": "ADAE",
              "variable": "AOCCPFL",
              "comparator": "EQ",
              "value": [
                "Y"
              ]
            }
          },
          {
            "level": 2,
            "order": 2,
            "condition": {
              "dataset": "ADAE",
              "variable": "TRTAN",
              "comparator": "IN",
              "value": [
                "2",
                "3"
              ]
            }
          }
        ]
      }
    }
  ],
  "analysisGroupings": [
    {
      "name": "Treatment",
      "id": "AnlsGrouping_26_Trt01An",
      "dataDriven": false,
      "groupingDataset": "ADSL",
      "groupingVariable": "TRT01AN",
      "groups": [
        {
          "name": "Xanomeline Low Dose \n(N=XX)\nn (%)",
          "id": "AnlsGrouping_26_Trt01An_01",
          "level": 1,
          "order": 1,
          "condition": {
            "dataset": "ADSL",
            "variable": "TRT01AN",
            "comparator": "EQ",
            "value": [
              "1"
            ]
          }
        },
        {
          "name": "Xanomeline High Dose \n(N=XX)\nn (%)",
          "id": "AnlsGrouping_26_Trt01An_02",
          "level": 1,
          "order": 2,
          "condition": {
            "dataset": "ADSL",
            "variable": "TRT01AN",
            "comparator": "EQ",
            "value": [
              "2"
            ]
          }
        },
        {
          "name": "Placebo \n(N=XX)\nn (%)",
          "id": "AnlsGrouping_26_Trt01An_03",
          "level": 1,
          "order": 3,
          "condition": {
            "dataset": "ADSL",
            "variable": "TRT01AN",
            "comparator": "EQ",
            "value": [
              "3"
            ]
          }
        }
      ]
    },
    {
      "name": "Body System or Organ Class",
      "label": "SOC {alphabetical order}",
      "id": "AnlsGrouping_28_Aebodsys",
      "dataDriven": true,
      "groupingDataset": "ADAE",
      "groupingVariable": "AEBODSYS"
    },
    {
      "name": "Dictionary-Derived Term",
      "label": "PT {alphabetical order}",
      "id": "AnlsGrouping_29_Aedecod",
      "dataDriven": true,
      "groupingDataset": "ADAE",
      "groupingVariable": "AEDECOD"
    }
  ],
  "methods": [
    {
      "name": "bigN",
      "description": "Grouped summary of categorical variable",
      "label": "Descriptive summary statistics across groups for a categorical variable, based on subject occurrence",
      "id": "Mth_00_1",
      "operations": [
        {
          "name": "n",
          "label": "n",
          "id": "Mth_00_1_01_n",
          "order": 1,
          "resultPattern": "(N=XX)"
        }
      ]
    },
    {
      "name": "Summary by group of a categorical variable",
      "description": "Descriptive summary statistics across groups for a categorical variable, based on subject occurrence",
      "label": "Grouped summary of categorical variable",
      "id": "Mth_03",
      "operations": [
        {
          "name": "n",
          "label": "n",
          "id": "Mth_03_01_n",
          "order": 1,
          "resultPattern": "XX"
        },
        {
          "name": "%",
          "label": "%",
          "id": "Mth_03_02_%",
          "order": 2,
          "referencedOperationRelationships": [
            {
              "id": "Mth_03_pct_NUM",
              "referencedOperationRole": {
                "controlledTerm": "NUMERATOR"
              },
              "operationId": "Mth_03_01_n",
              "description": "The numerator for the calculation of the percentage."
            },
            {
              "id": "Mth_03_pct_DEN",
              "referencedOperationRole": {
                "controlledTerm": "DENOMINATOR"
              },
              "operationId": "Mth_00_1_01_n",
              "description": "The denominator for the calculation of the percentage."
            }
          ],
          "resultPattern": "(XX.X)"
        }
      ]
    },
    {
      "name": "Summary by group of a categorical variable",
      "description": "Descriptive summary statistics across groups for a categorical variable, based on subject occurrence",
      "label": "Grouped summary of categorical variable",
      "id": "Mth_03_1",
      "operations": [
        {
          "name": "Risk Difference %",
          "label": "Risk Difference %",
          "id": "Mth_03_1_01_Risk_Difference_%",
          "order": 1,
          "resultPattern": "XX.X"
        },
        {
          "name": "95% CI Low",
          "label": "95% CI Low",
          "id": "Mth_03_1_02_95%_CI_Low",
          "order": 2,
          "resultPattern": "XX.X"
        },
        {
          "name": "95% CI High",
          "label": "95% CI High",
          "id": "Mth_03_1_03_95%_CI_High",
          "order": 3,
          "resultPattern": "XX.X"
        }
      ]
    }
  ],
  "analyses": [
    {
      "name": "Summary of Subjects by Treatment",
      "id": "An_51",
      "reason": {
        "controlledTerm": "SPECIFIED IN SAP"
      },
      "purpose": {
        "sponsorTermId": "TermEx01_01"
      },
      "methodId": "Mth_00_1",
      "version": 1,
      "categoryIds": [
        "ANSET_01",
        "ANSET_01_ANINT_05"
      ],
      "dataset": "ADAE",
      "variable": "USUBJID",
      "analysisSetId": "AnalysisSet_01",
      "orderedGroupings": [
        {
          "order": 1,
          "groupingId": "AnlsGrouping_26_Trt01An",
          "resultsByGroup": true
        }
      ],
      "results": [
        {
          "operationId": "Mth_00_1_01_n",
          "resultGroups": [
            {
              "groupingId": "AnlsGrouping_26_Trt01An",
              "groupId": "AnlsGrouping_26_Trt01An_01"
            }
          ],
          "rawValue": "84",
          "formattedValue": "(N=84)"
        },
        {
          "operationId": "Mth_00_1_01_n",
          "resultGroups": [
            {
              "groupingId": "AnlsGrouping_26_Trt01An",
              "groupId": "AnlsGrouping_26_Trt01An_02"
            }
          ],
          "rawValue": "84",
          "formattedValue": "(N=84)"
        },
        {
          "operationId": "Mth_00_1_01_n",
          "resultGroups": [
            {
              "groupingId": "AnlsGrouping_26_Trt01An",
              "groupId": "AnlsGrouping_26_Trt01An_03"
            }
          ],
          "rawValue": "86",
          "formattedValue": "(N=86)"
        }
      ]
    },
    {
      "name": "Summary of subjects with at least one TEAE by Treatment",
      "id": "An_52",
      "reason": {
        "controlledTerm": "DATA DRIVEN"
      },
      "purpose": {
        "controlledTerm": "SECONDARY OUTCOME MEASURE"
      },
      "methodId": "Mth_03",
      "version": 1,
      "categoryIds": [
        "ANSET_01",
        "ANSET_01_ANINT_05"
      ],
      "dataset": "ADAE",
      "variable": "USUBJID",
      "analysisSetId": "AnalysisSet_01",
      "dataSubsetId": "Dss_15",
      "orderedGroupings": [
        {
          "order": 1,
          "groupingId": "AnlsGrouping_26_Trt01An",
          "resultsByGroup": true
        }
      ],
      "referencedAnalysisOperations": [
        {
          "referencedOperationRelationshipId": "Mth_03_pct_NUM",
          "analysisId": "An_52"
        },
        {
          "referencedOperationRelationshipId": "Mth_03_pct_DEN",
          "analysisId": "An_51"
        }
      ],
      "results": [
        {
          "operationId": "Mth_03_01_n",
          "resultGroups": [
            {
              "groupingId": "AnlsGrouping_26_Trt01An",
              "groupId": "AnlsGrouping_26_Trt01An_01"
            }
          ],
          "rawValue": "77",
          "formattedValue": "77"
        },
        {
          "operationId": "Mth_03_01_n",
          "resultGroups": [
            {
              "groupingId": "AnlsGrouping_26_Trt01An",
              "groupId": "AnlsGrouping_26_Trt01An_02"
            }
          ],
          "rawValue": "76",
          "formattedValue": "76"
        },
        {
          "operationId": "Mth_03_01_n",
          "resultGroups": [
            {
              "groupingId": "AnlsGrouping_26_Trt01An",
              "groupId": "AnlsGrouping_26_Trt01An_03"
            }
          ],
          "rawValue": "65",
          "formattedValue": "65"
        },
        {
          "operationId": "Mth_03_02_%",
          "resultGroups": [
            {
              "groupingId": "AnlsGrouping_26_Trt01An",
              "groupId": "AnlsGrouping_26_Trt01An_01"
            }
          ],
          "rawValue": "91.666666667",
          "formattedValue": "(91.7)"
        },
        {
          "operationId": "Mth_03_02_%",
          "resultGroups": [
            {
              "groupingId": "AnlsGrouping_26_Trt01An",
              "groupId": "AnlsGrouping_26_Trt01An_02"
            }
          ],
          "rawValue": "90.476190476",
          "formattedValue": "(90.5)"
        },
        {
          "operationId": "Mth_03_02_%",
          "resultGroups": [
            {
              "groupingId": "AnlsGrouping_26_Trt01An",
              "groupId": "AnlsGrouping_26_Trt01An_03"
            }
          ],
          "rawValue": "75.581395349",
          "formattedValue": "(75.6)"
        }
      ]
    },
    {
      "name": "Comparison of subjects with at least one TEAE, Xanomeline Low Dose vs Placebo",
      "id": "An_53",
      "reason": {
        "controlledTerm": "DATA DRIVEN"
      },
      "purpose": {
        "controlledTerm": "SECONDARY OUTCOME MEASURE"
      },
      "methodId": "Mth_03_1",
      "version": 1,
      "categoryIds": [
        "ANSET_01",
        "ANSET_01_ANINT_05"
      ],
      "dataset": "ADAE",
      "variable": "USUBJID",
      "analysisSetId": "AnalysisSet_01",
      "dataSubsetId": "Dss_73",
      "orderedGroupings": [
        {
          "order": 1,
          "groupingId": "AnlsGrouping_26_Trt01An",
          "resultsByGroup": false
        }
      ],
      "results": [
        {
          "operationId": "Mth_03_1_01_Risk_Difference_%",
          "resultGroups": [
            {
              "groupingId": "AnlsGrouping_26_Trt01An"
            }
          ],
          "rawValue": "16.1",
          "formattedValue": "16.1"
        },
        {
          "operationId": "Mth_03_1_02_95%_CI_Low",
          "resultGroups": [
            {
              "groupingId": "AnlsGrouping_26_Trt01An"
            }
          ],
          "rawValue": "5.2737477793",
          "formattedValue": "5.3"
        },
        {
          "operationId": "Mth_03_1_03_95%_CI_High",
          "resultGroups": [
            {
              "groupingId": "AnlsGrouping_26_Trt01An"
            }
          ],
          "rawValue": "26.926252221",
          "formattedValue": "26.9"
        }
      ]
    },
    {
      "name": "Comparison of subjects with at least one TEAE, Xanomeline High Dose vs Placebo",
      "id": "An_53_1",
      "reason": {
        "controlledTerm": "DATA DRIVEN"
      },
      "purpose": {
        "controlledTerm": "SECONDARY OUTCOME MEASURE"
      },
      "methodId": "Mth_03_1",
      "version": 1,
      "categoryIds": [
        "ANSET_01",
        "ANSET_01_ANINT_05"
      ],
      "dataset": "ADAE",
      "variable": "USUBJID",
      "analysisSetId": "AnalysisSet_01",
      "dataSubsetId": "Dss_74",
      "orderedGroupings": [
        {
          "order": 1,
          "groupingId": "AnlsGrouping_26_Trt01An",
          "resultsByGroup": false
        }
      ],
      "results": [
        {
          "operationId": "Mth_03_1_01_Risk_Difference_%",
          "resultGroups": [
            {
              "groupingId": "AnlsGrouping_26_Trt01An"
            }
          ],
          "rawValue": "16.1",
          "formattedValue": "14.9"
        },
        {
          "operationId": "Mth_03_1_02_95%_CI_Low",
          "resultGroups": [
            {
              "groupingId": "AnlsGrouping_26_Trt01An"
            }
          ],
          "rawValue": "3.8673723371",
          "formattedValue": "3.9"
        },
        {
          "operationId": "Mth_03_1_03_95%_CI_High",
          "resultGroups": [
            {
              "groupingId": "AnlsGrouping_26_Trt01An"
            }
          ],
          "rawValue": "25.932627663",
          "formattedValue": "25.9"
        }
      ]
    },
    {
      "name": "Summary of subjects by Treatment and SOC",
      "id": "An_54",
      "reason": {
        "controlledTerm": "DATA DRIVEN"
      },
      "purpose": {
        "controlledTerm": "SECONDARY OUTCOME MEASURE"
      },
      "methodId": "Mth_03",
      "version": 1,
      "categoryIds": [
        "ANSET_01",
        "ANSET_01_ANINT_05"
      ],
      "dataset": "ADAE",
      "variable": "USUBJID",
      "analysisSetId": "AnalysisSet_01",
      "dataSubsetId": "Dss_16",
      "orderedGroupings": [
        {
          "order": 1,
          "groupingId": "AnlsGrouping_26_Trt01An",
          "resultsByGroup": true
        },
        {
          "order": 2,
          "groupingId": "AnlsGrouping_28_Aebodsys",
          "resultsByGroup": true
        }
      ],
      "referencedAnalysisOperations": [
        {
          "referencedOperationRelationshipId": "Mth_03_pct_NUM",
          "analysisId": "An_54"
        },
        {
          "referencedOperationRelationshipId": "Mth_03_pct_DEN",
          "analysisId": "An_51"
        }
      ],
      "results": [
        {
          "operationId": "Mth_03_01_n",
          "resultGroups": [
            {
              "groupingId": "AnlsGrouping_26_Trt01An",
              "groupId": "AnlsGrouping_26_Trt01An_01"
            },
            {
              "groupingId": "AnlsGrouping_28_Aebodsys",
              "groupValue": "HEPATOBILIARY DISORDERS"
            }
          ],
          "rawValue": "0",
          "formattedValue": "0"
        },
        {
          "operationId": "Mth_03_01_n",
          "resultGroups": [
            {
              "groupingId": "AnlsGrouping_26_Trt01An",
              "groupId": "AnlsGrouping_26_Trt01An_01"
            },
            {
              "groupingId": "AnlsGrouping_28_Aebodsys",
              "groupValue": "REPRODUCTIVE SYSTEM AND BREAST DISORDERS"
            }
          ],
          "rawValue": "0",
          "formattedValue": "0"
        },
        {
          "operationId": "Mth_03_01_n",
          "resultGroups": [
            {
              "groupingId": "AnlsGrouping_26_Trt01An",
              "groupId": "AnlsGrouping_26_Trt01An_01"
            },
            {
              "groupingId": "AnlsGrouping_28_Aebodsys",
              "groupValue": "SOCIAL CIRCUMSTANCES"
            }
          ],
          "rawValue": "0",
          "formattedValue": "0"
        },
        {
          "operationId": "Mth_03_01_n",
          "resultGroups": [
            {
              "groupingId": "AnlsGrouping_26_Trt01An",
              "groupId": "AnlsGrouping_26_Trt01An_01"
            },
            {
              "groupingId": "AnlsGrouping_28_Aebodsys",
              "groupValue": "CONGENITAL, FAMILIAL AND GENETIC DISORDERS"
            }
          ],
          "rawValue": "1",
          "formattedValue": "1"
        },
        {
          "operationId": "Mth_03_01_n",
          "resultGroups": [
            {
              "groupingId": "AnlsGrouping_26_Trt01An",
              "groupId": "AnlsGrouping_26_Trt01An_01"
            },
            {
              "groupingId": "AnlsGrouping_28_Aebodsys",
              "groupValue": "IMMUNE SYSTEM DISORDERS"
            }
          ],
          "rawValue": "1",
          "formattedValue": "1"
        },
        {
          "operationId": "Mth_03_01_n",
          "resultGroups": [
            {
              "groupingId": "AnlsGrouping_26_Trt01An",
              "groupId": "AnlsGrouping_26_Trt01An_01"
            },
            {
              "groupingId": "AnlsGrouping_28_Aebodsys",
              "groupValue": "METABOLISM AND NUTRITION DISORDERS"
            }
          ],
          "rawValue": "1",
          "formattedValue": "1"
        },
        {
          "operationId": "Mth_03_01_n",
          "resultGroups": [
            {
              "groupingId": "AnlsGrouping_26_Trt01An",
              "groupId": "AnlsGrouping_26_Trt01An_01"
            },
            {
              "groupingId": "AnlsGrouping_28_Aebodsys",
              "groupValue": "SURGICAL AND MEDICAL PROCEDURES"
            }
          ],
          "rawValue": "1",
          "formattedValue": "1"
        },
        {
          "operationId": "Mth_03_01_n",
          "resultGroups": [
            {
              "groupingId": "AnlsGrouping_26_Trt01An",
              "groupId": "AnlsGrouping_26_Trt01An_01"
            },
            {
              "groupingId": "AnlsGrouping_28_Aebodsys",
              "groupValue": "EAR AND LABYRINTH DISORDERS"
            }
          ],
          "rawValue": "2",
          "formattedValue": "2"
        },
        {
          "operationId": "Mth_03_01_n",
          "resultGroups": [
            {
              "groupingId": "AnlsGrouping_26_Trt01An",
              "groupId": "AnlsGrouping_26_Trt01An_01"
            },
            {
              "groupingId": "AnlsGrouping_28_Aebodsys",
              "groupValue": "EYE DISORDERS"
            }
          ],
          "rawValue": "2",
          "formattedValue": "2"
        },
        {
          "operationId": "Mth_03_01_n",
          "resultGroups": [
            {
              "groupingId": "AnlsGrouping_26_Trt01An",
              "groupId": "AnlsGrouping_26_Trt01An_01"
            },
            {
              "groupingId": "AnlsGrouping_28_Aebodsys",
              "groupValue": "NEOPLASMS BENIGN, MALIGNANT AND UNSPECIFIED (INCL CYSTS AND POLYPS)"
            }
          ],
          "rawValue": "2",
          "formattedValue": "2"
        },
        {
          "operationId": "Mth_03_01_n",
          "resultGroups": [
            {
              "groupingId": "AnlsGrouping_26_Trt01An",
              "groupId": "AnlsGrouping_26_Trt01An_01"
            },
            {
              "groupingId": "AnlsGrouping_28_Aebodsys",
              "groupValue": "RENAL AND URINARY DISORDERS"
            }
          ],
          "rawValue": "3",
          "formattedValue": "3"
        },
        {
          "operationId": "Mth_03_01_n",
          "resultGroups": [
            {
              "groupingId": "AnlsGrouping_26_Trt01An",
              "groupId": "AnlsGrouping_26_Trt01An_01"
            },
            {
              "groupingId": "AnlsGrouping_28_Aebodsys",
              "groupValue": "VASCULAR DISORDERS"
            }
          ],
          "rawValue": "3",
          "formattedValue": "3"
        },
        {
          "operationId": "Mth_03_01_n",
          "resultGroups": [
            {
              "groupingId": "AnlsGrouping_26_Trt01An",
              "groupId": "AnlsGrouping_26_Trt01An_01"
            },
            {
              "groupingId": "AnlsGrouping_28_Aebodsys",
              "groupValue": "INJURY, POISONING AND PROCEDURAL COMPLICATIONS"
            }
          ],
          "rawValue": "5",
          "formattedValue": "5"
        },
        {
          "operationId": "Mth_03_01_n",
          "resultGroups": [
            {
              "groupingId": "AnlsGrouping_26_Trt01An",
              "groupId": "AnlsGrouping_26_Trt01An_01"
            },
            {
              "groupingId": "AnlsGrouping_28_Aebodsys",
              "groupValue": "INVESTIGATIONS"
            }
          ],
          "rawValue": "6",
          "formattedValue": "6"
        },
        {
          "operationId": "Mth_03_01_n",
          "resultGroups": [
            {
              "groupingId": "AnlsGrouping_26_Trt01An",
              "groupId": "AnlsGrouping_26_Trt01An_01"
            },
            {
              "groupingId": "AnlsGrouping_28_Aebodsys",
              "groupValue": "MUSCULOSKELETAL AND CONNECTIVE TISSUE DISORDERS"
            }
          ],
          "rawValue": "7",
          "formattedValue": "7"
        },
        {
          "operationId": "Mth_03_01_n",
          "resultGroups": [
            {
              "groupingId": "AnlsGrouping_26_Trt01An",
              "groupId": "AnlsGrouping_26_Trt01An_01"
            },
            {
              "groupingId": "AnlsGrouping_28_Aebodsys",
              "groupValue": "INFECTIONS AND INFESTATIONS"
            }
          ],
          "rawValue": "9",
          "formattedValue": "9"
        },
        {
          "operationId": "Mth_03_01_n",
          "resultGroups": [
            {
              "groupingId": "AnlsGrouping_26_Trt01An",
              "groupId": "AnlsGrouping_26_Trt01An_01"
            },
            {
              "groupingId": "AnlsGrouping_28_Aebodsys",
              "groupValue": "RESPIRATORY, THORACIC AND MEDIASTINAL DISORDERS"
            }
          ],
          "rawValue": "9",
          "formattedValue": "9"
        },
        {
          "operationId": "Mth_03_01_n",
          "resultGroups": [
            {
              "groupingId": "AnlsGrouping_26_Trt01An",
              "groupId": "AnlsGrouping_26_Trt01An_01"
            },
            {
              "groupingId": "AnlsGrouping_28_Aebodsys",
              "groupValue": "PSYCHIATRIC DISORDERS"
            }
          ],
          "rawValue": "10",
          "formattedValue": "10"
        },
        {
          "operationId": "Mth_03_01_n",
          "resultGroups": [
            {
              "groupingId": "AnlsGrouping_26_Trt01An",
              "groupId": "AnlsGrouping_26_Trt01An_01"
            },
            {
              "groupingId": "AnlsGrouping_28_Aebodsys",
              "groupValue": "CARDIAC DISORDERS"
            }
          ],
          "rawValue": "13",
          "formattedValue": "13"
        },
        {
          "operationId": "Mth_03_01_n",
          "resultGroups": [
            {
              "groupingId": "AnlsGrouping_26_Trt01An",
              "groupId": "AnlsGrouping_26_Trt01An_01"
            },
            {
              "groupingId": "AnlsGrouping_28_Aebodsys",
              "groupValue": "GASTROINTESTINAL DISORDERS"
            }
          ],
          "rawValue": "14",
          "formattedValue": "14"
        },
        {
          "operationId": "Mth_03_01_n",
          "resultGroups": [
            {
              "groupingId": "AnlsGrouping_26_Trt01An",
              "groupId": "AnlsGrouping_26_Trt01An_01"
            },
            {
              "groupingId": "AnlsGrouping_28_Aebodsys",
              "groupValue": "NERVOUS SYSTEM DISORDERS"
            }
          ],
          "rawValue": "20",
          "formattedValue": "20"
        },
        {
          "operationId": "Mth_03_01_n",
          "resultGroups": [
            {
              "groupingId": "AnlsGrouping_26_Trt01An",
              "groupId": "AnlsGrouping_26_Trt01An_01"
            },
            {
              "groupingId": "AnlsGrouping_28_Aebodsys",
              "groupValue": "SKIN AND SUBCUTANEOUS TISSUE DISORDERS"
            }
          ],
          "rawValue": "39",
          "formattedValue": "39"
        },
        {
          "operationId": "Mth_03_01_n",
          "resultGroups": [
            {
              "groupingId": "AnlsGrouping_26_Trt01An",
              "groupId": "AnlsGrouping_26_Trt01An_01"
            },
            {
              "groupingId": "AnlsGrouping_28_Aebodsys",
              "groupValue": "GENERAL DISORDERS AND ADMINISTRATION SITE CONDITIONS"
            }
          ],
          "rawValue": "47",
          "formattedValue": "47"
        },
        {
          "operationId": "Mth_03_01_n",
          "resultGroups": [
            {
              "groupingId": "AnlsGrouping_26_Trt01An",
              "groupId": "AnlsGrouping_26_Trt01An_02"
            },
            {
              "groupingId": "AnlsGrouping_28_Aebodsys",
              "groupValue": "HEPATOBILIARY DISORDERS"
            }
          ],
          "rawValue": "0",
          "formattedValue": "0"
        },
        {
          "operationId": "Mth_03_01_n",
          "resultGroups": [
            {
              "groupingId": "AnlsGrouping_26_Trt01An",
              "groupId": "AnlsGrouping_26_Trt01An_02"
            },
            {
              "groupingId": "AnlsGrouping_28_Aebodsys",
              "groupValue": "IMMUNE SYSTEM DISORDERS"
            }
          ],
          "rawValue": "0",
          "formattedValue": "0"
        },
        {
          "operationId": "Mth_03_01_n",
          "resultGroups": [
            {
              "groupingId": "AnlsGrouping_26_Trt01An",
              "groupId": "AnlsGrouping_26_Trt01An_02"
            },
            {
              "groupingId": "AnlsGrouping_28_Aebodsys",
              "groupValue": "EAR AND LABYRINTH DISORDERS"
            }
          ],
          "rawValue": "1",
          "formattedValue": "1"
        },
        {
          "operationId": "Mth_03_01_n",
          "resultGroups": [
            {
              "groupingId": "AnlsGrouping_26_Trt01An",
              "groupId": "AnlsGrouping_26_Trt01An_02"
            },
            {
              "groupingId": "AnlsGrouping_28_Aebodsys",
              "groupValue": "EYE DISORDERS"
            }
          ],
          "rawValue": "1",
          "formattedValue": "1"
        },
        {
          "operationId": "Mth_03_01_n",
          "resultGroups": [
            {
              "groupingId": "AnlsGrouping_26_Trt01An",
              "groupId": "AnlsGrouping_26_Trt01An_02"
            },
            {
              "groupingId": "AnlsGrouping_28_Aebodsys",
              "groupValue": "NEOPLASMS BENIGN, MALIGNANT AND UNSPECIFIED (INCL CYSTS AND POLYPS)"
            }
          ],
          "rawValue": "1",
          "formattedValue": "1"
        },
        {
          "operationId": "Mth_03_01_n",
          "resultGroups": [
            {
              "groupingId": "AnlsGrouping_26_Trt01An",
              "groupId": "AnlsGrouping_26_Trt01An_02"
            },
            {
              "groupingId": "AnlsGrouping_28_Aebodsys",
              "groupValue": "REPRODUCTIVE SYSTEM AND BREAST DISORDERS"
            }
          ],
          "rawValue": "1",
          "formattedValue": "1"
        },
        {
          "operationId": "Mth_03_01_n",
          "resultGroups": [
            {
              "groupingId": "AnlsGrouping_26_Trt01An",
              "groupId": "AnlsGrouping_26_Trt01An_02"
            },
            {
              "groupingId": "AnlsGrouping_28_Aebodsys",
              "groupValue": "SOCIAL CIRCUMSTANCES"
            }
          ],
          "rawValue": "1",
          "formattedValue": "1"
        },
        {
          "operationId": "Mth_03_01_n",
          "resultGroups": [
            {
              "groupingId": "AnlsGrouping_26_Trt01An",
              "groupId": "AnlsGrouping_26_Trt01An_02"
            },
            {
              "groupingId": "AnlsGrouping_28_Aebodsys",
              "groupValue": "VASCULAR DISORDERS"
            }
          ],
          "rawValue": "1",
          "formattedValue": "1"
        },
        {
          "operationId": "Mth_03_01_n",
          "resultGroups": [
            {
              "groupingId": "AnlsGrouping_26_Trt01An",
              "groupId": "AnlsGrouping_26_Trt01An_02"
            },
            {
              "groupingId": "AnlsGrouping_28_Aebodsys",
              "groupValue": "CONGENITAL, FAMILIAL AND GENETIC DISORDERS"
            }
          ],
          "rawValue": "2",
          "formattedValue": "2"
        },
        {
          "operationId": "Mth_03_01_n",
          "resultGroups": [
            {
              "groupingId": "AnlsGrouping_26_Trt01An",
              "groupId": "AnlsGrouping_26_Trt01An_02"
            },
            {
              "groupingId": "AnlsGrouping_28_Aebodsys",
              "groupValue": "METABOLISM AND NUTRITION DISORDERS"
            }
          ],
          "rawValue": "2",
          "formattedValue": "2"
        },
        {
          "operationId": "Mth_03_01_n",
          "resultGroups": [
            {
              "groupingId": "AnlsGrouping_26_Trt01An",
              "groupId": "AnlsGrouping_26_Trt01An_02"
            },
            {
              "groupingId": "AnlsGrouping_28_Aebodsys",
              "groupValue": "SURGICAL AND MEDICAL PROCEDURES"
            }
          ],
          "rawValue": "2",
          "formattedValue": "2"
        },
        {
          "operationId": "Mth_03_01_n",
          "resultGroups": [
            {
              "groupingId": "AnlsGrouping_26_Trt01An",
              "groupId": "AnlsGrouping_26_Trt01An_02"
            },
            {
              "groupingId": "AnlsGrouping_28_Aebodsys",
              "groupValue": "RENAL AND URINARY DISORDERS"
            }
          ],
          "rawValue": "3",
          "formattedValue": "3"
        },
        {
          "operationId": "Mth_03_01_n",
          "resultGroups": [
            {
              "groupingId": "AnlsGrouping_26_Trt01An",
              "groupId": "AnlsGrouping_26_Trt01An_02"
            },
            {
              "groupingId": "AnlsGrouping_28_Aebodsys",
              "groupValue": "INJURY, POISONING AND PROCEDURAL COMPLICATIONS"
            }
          ],
          "rawValue": "5",
          "formattedValue": "5"
        },
        {
          "operationId": "Mth_03_01_n",
          "resultGroups": [
            {
              "groupingId": "AnlsGrouping_26_Trt01An",
              "groupId": "AnlsGrouping_26_Trt01An_02"
            },
            {
              "groupingId": "AnlsGrouping_28_Aebodsys",
              "groupValue": "INVESTIGATIONS"
            }
          ],
          "rawValue": "6",
          "formattedValue": "6"
        },
        {
          "operationId": "Mth_03_01_n",
          "resultGroups": [
            {
              "groupingId": "AnlsGrouping_26_Trt01An",
              "groupId": "AnlsGrouping_26_Trt01An_02"
            },
            {
              "groupingId": "AnlsGrouping_28_Aebodsys",
              "groupValue": "MUSCULOSKELETAL AND CONNECTIVE TISSUE DISORDERS"
            }
          ],
          "rawValue": "7",
          "formattedValue": "7"
        },
        {
          "operationId": "Mth_03_01_n",
          "resultGroups": [
            {
              "groupingId": "AnlsGrouping_26_Trt01An",
              "groupId": "AnlsGrouping_26_Trt01An_02"
            },
            {
              "groupingId": "AnlsGrouping_28_Aebodsys",
              "groupValue": "PSYCHIATRIC DISORDERS"
            }
          ],
          "rawValue": "8",
          "formattedValue": "8"
        },
        {
          "operationId": "Mth_03_01_n",
          "resultGroups": [
            {
              "groupingId": "AnlsGrouping_26_Trt01An",
              "groupId": "AnlsGrouping_26_Trt01An_02"
            },
            {
              "groupingId": "AnlsGrouping_28_Aebodsys",
              "groupValue": "RESPIRATORY, THORACIC AND MEDIASTINAL DISORDERS"
            }
          ],
          "rawValue": "10",
          "formattedValue": "10"
        },
        {
          "operationId": "Mth_03_01_n",
          "resultGroups": [
            {
              "groupingId": "AnlsGrouping_26_Trt01An",
              "groupId": "AnlsGrouping_26_Trt01An_02"
            },
            {
              "groupingId": "AnlsGrouping_28_Aebodsys",
              "groupValue": "INFECTIONS AND INFESTATIONS"
            }
          ],
          "rawValue": "13",
          "formattedValue": "13"
        },
        {
          "operationId": "Mth_03_01_n",
          "resultGroups": [
            {
              "groupingId": "AnlsGrouping_26_Trt01An",
              "groupId": "AnlsGrouping_26_Trt01An_02"
            },
            {
              "groupingId": "AnlsGrouping_28_Aebodsys",
              "groupValue": "CARDIAC DISORDERS"
            }
          ],
          "rawValue": "15",
          "formattedValue": "15"
        },
        {
          "operationId": "Mth_03_01_n",
          "resultGroups": [
            {
              "groupingId": "AnlsGrouping_26_Trt01An",
              "groupId": "AnlsGrouping_26_Trt01An_02"
            },
            {
              "groupingId": "AnlsGrouping_28_Aebodsys",
              "groupValue": "GASTROINTESTINAL DISORDERS"
            }
          ],
          "rawValue": "20",
          "formattedValue": "20"
        },
        {
          "operationId": "Mth_03_01_n",
          "resultGroups": [
            {
              "groupingId": "AnlsGrouping_26_Trt01An",
              "groupId": "AnlsGrouping_26_Trt01An_02"
            },
            {
              "groupingId": "AnlsGrouping_28_Aebodsys",
              "groupValue": "NERVOUS SYSTEM DISORDERS"
            }
          ],
          "rawValue": "25",
          "formattedValue": "25"
        },
        {
          "operationId": "Mth_03_01_n",
          "resultGroups": [
            {
              "groupingId": "AnlsGrouping_26_Trt01An",
              "groupId": "AnlsGrouping_26_Trt01An_02"
            },
            {
              "groupingId": "AnlsGrouping_28_Aebodsys",
              "groupValue": "GENERAL DISORDERS AND ADMINISTRATION SITE CONDITIONS"
            }
          ],
          "rawValue": "40",
          "formattedValue": "40"
        },
        {
          "operationId": "Mth_03_01_n",
          "resultGroups": [
            {
              "groupingId": "AnlsGrouping_26_Trt01An",
              "groupId": "AnlsGrouping_26_Trt01An_02"
            },
            {
              "groupingId": "AnlsGrouping_28_Aebodsys",
              "groupValue": "SKIN AND SUBCUTANEOUS TISSUE DISORDERS"
            }
          ],
          "rawValue": "40",
          "formattedValue": "40"
        },
        {
          "operationId": "Mth_03_01_n",
          "resultGroups": [
            {
              "groupingId": "AnlsGrouping_26_Trt01An",
              "groupId": "AnlsGrouping_26_Trt01An_03"
            },
            {
              "groupingId": "AnlsGrouping_28_Aebodsys",
              "groupValue": "CONGENITAL, FAMILIAL AND GENETIC DISORDERS"
            }
          ],
          "rawValue": "0",
          "formattedValue": "0"
        },
        {
          "operationId": "Mth_03_01_n",
          "resultGroups": [
            {
              "groupingId": "AnlsGrouping_26_Trt01An",
              "groupId": "AnlsGrouping_26_Trt01An_03"
            },
            {
              "groupingId": "AnlsGrouping_28_Aebodsys",
              "groupValue": "IMMUNE SYSTEM DISORDERS"
            }
          ],
          "rawValue": "0",
          "formattedValue": "0"
        },
        {
          "operationId": "Mth_03_01_n",
          "resultGroups": [
            {
              "groupingId": "AnlsGrouping_26_Trt01An",
              "groupId": "AnlsGrouping_26_Trt01An_03"
            },
            {
              "groupingId": "AnlsGrouping_28_Aebodsys",
              "groupValue": "NEOPLASMS BENIGN, MALIGNANT AND UNSPECIFIED (INCL CYSTS AND POLYPS)"
            }
          ],
          "rawValue": "0",
          "formattedValue": "0"
        },
        {
          "operationId": "Mth_03_01_n",
          "resultGroups": [
            {
              "groupingId": "AnlsGrouping_26_Trt01An",
              "groupId": "AnlsGrouping_26_Trt01An_03"
            },
            {
              "groupingId": "AnlsGrouping_28_Aebodsys",
              "groupValue": "SOCIAL CIRCUMSTANCES"
            }
          ],
          "rawValue": "0",
          "formattedValue": "0"
        },
        {
          "operationId": "Mth_03_01_n",
          "resultGroups": [
            {
              "groupingId": "AnlsGrouping_26_Trt01An",
              "groupId": "AnlsGrouping_26_Trt01An_03"
            },
            {
              "groupingId": "AnlsGrouping_28_Aebodsys",
              "groupValue": "EAR AND LABYRINTH DISORDERS"
            }
          ],
          "rawValue": "1",
          "formattedValue": "1"
        },
        {
          "operationId": "Mth_03_01_n",
          "resultGroups": [
            {
              "groupingId": "AnlsGrouping_26_Trt01An",
              "groupId": "AnlsGrouping_26_Trt01An_03"
            },
            {
              "groupingId": "AnlsGrouping_28_Aebodsys",
              "groupValue": "HEPATOBILIARY DISORDERS"
            }
          ],
          "rawValue": "1",
          "formattedValue": "1"
        },
        {
          "operationId": "Mth_03_01_n",
          "resultGroups": [
            {
              "groupingId": "AnlsGrouping_26_Trt01An",
              "groupId": "AnlsGrouping_26_Trt01An_03"
            },
            {
              "groupingId": "AnlsGrouping_28_Aebodsys",
              "groupValue": "EYE DISORDERS"
            }
          ],
          "rawValue": "2",
          "formattedValue": "2"
        },
        {
          "operationId": "Mth_03_01_n",
          "resultGroups": [
            {
              "groupingId": "AnlsGrouping_26_Trt01An",
              "groupId": "AnlsGrouping_26_Trt01An_03"
            },
            {
              "groupingId": "AnlsGrouping_28_Aebodsys",
              "groupValue": "REPRODUCTIVE SYSTEM AND BREAST DISORDERS"
            }
          ],
          "rawValue": "2",
          "formattedValue": "2"
        },
        {
          "operationId": "Mth_03_01_n",
          "resultGroups": [
            {
              "groupingId": "AnlsGrouping_26_Trt01An",
              "groupId": "AnlsGrouping_26_Trt01An_03"
            },
            {
              "groupingId": "AnlsGrouping_28_Aebodsys",
              "groupValue": "SURGICAL AND MEDICAL PROCEDURES"
            }
          ],
          "rawValue": "2",
          "formattedValue": "2"
        },
        {
          "operationId": "Mth_03_01_n",
          "resultGroups": [
            {
              "groupingId": "AnlsGrouping_26_Trt01An",
              "groupId": "AnlsGrouping_26_Trt01An_03"
            },
            {
              "groupingId": "AnlsGrouping_28_Aebodsys",
              "groupValue": "VASCULAR DISORDERS"
            }
          ],
          "rawValue": "3",
          "formattedValue": "3"
        },
        {
          "operationId": "Mth_03_01_n",
          "resultGroups": [
            {
              "groupingId": "AnlsGrouping_26_Trt01An",
              "groupId": "AnlsGrouping_26_Trt01An_03"
            },
            {
              "groupingId": "AnlsGrouping_28_Aebodsys",
              "groupValue": "INJURY, POISONING AND PROCEDURAL COMPLICATIONS"
            }
          ],
          "rawValue": "4",
          "formattedValue": "4"
        },
        {
          "operationId": "Mth_03_01_n",
          "resultGroups": [
            {
              "groupingId": "AnlsGrouping_26_Trt01An",
              "groupId": "AnlsGrouping_26_Trt01An_03"
            },
            {
              "groupingId": "AnlsGrouping_28_Aebodsys",
              "groupValue": "MUSCULOSKELETAL AND CONNECTIVE TISSUE DISORDERS"
            }
          ],
          "rawValue": "4",
          "formattedValue": "4"
        },
        {
          "operationId": "Mth_03_01_n",
          "resultGroups": [
            {
              "groupingId": "AnlsGrouping_26_Trt01An",
              "groupId": "AnlsGrouping_26_Trt01An_03"
            },
            {
              "groupingId": "AnlsGrouping_28_Aebodsys",
              "groupValue": "RENAL AND URINARY DISORDERS"
            }
          ],
          "rawValue": "4",
          "formattedValue": "4"
        },
        {
          "operationId": "Mth_03_01_n",
          "resultGroups": [
            {
              "groupingId": "AnlsGrouping_26_Trt01An",
              "groupId": "AnlsGrouping_26_Trt01An_03"
            },
            {
              "groupingId": "AnlsGrouping_28_Aebodsys",
              "groupValue": "METABOLISM AND NUTRITION DISORDERS"
            }
          ],
          "rawValue": "6",
          "formattedValue": "6"
        },
        {
          "operationId": "Mth_03_01_n",
          "resultGroups": [
            {
              "groupingId": "AnlsGrouping_26_Trt01An",
              "groupId": "AnlsGrouping_26_Trt01An_03"
            },
            {
              "groupingId": "AnlsGrouping_28_Aebodsys",
              "groupValue": "NERVOUS SYSTEM DISORDERS"
            }
          ],
          "rawValue": "8",
          "formattedValue": "8"
        },
        {
          "operationId": "Mth_03_01_n",
          "resultGroups": [
            {
              "groupingId": "AnlsGrouping_26_Trt01An",
              "groupId": "AnlsGrouping_26_Trt01An_03"
            },
            {
              "groupingId": "AnlsGrouping_28_Aebodsys",
              "groupValue": "RESPIRATORY, THORACIC AND MEDIASTINAL DISORDERS"
            }
          ],
          "rawValue": "8",
          "formattedValue": "8"
        },
        {
          "operationId": "Mth_03_01_n",
          "resultGroups": [
            {
              "groupingId": "AnlsGrouping_26_Trt01An",
              "groupId": "AnlsGrouping_26_Trt01An_03"
            },
            {
              "groupingId": "AnlsGrouping_28_Aebodsys",
              "groupValue": "INVESTIGATIONS"
            }
          ],
          "rawValue": "10",
          "formattedValue": "10"
        },
        {
          "operationId": "Mth_03_01_n",
          "resultGroups": [
            {
              "groupingId": "AnlsGrouping_26_Trt01An",
              "groupId": "AnlsGrouping_26_Trt01An_03"
            },
            {
              "groupingId": "AnlsGrouping_28_Aebodsys",
              "groupValue": "PSYCHIATRIC DISORDERS"
            }
          ],
          "rawValue": "10",
          "formattedValue": "10"
        },
        {
          "operationId": "Mth_03_01_n",
          "resultGroups": [
            {
              "groupingId": "AnlsGrouping_26_Trt01An",
              "groupId": "AnlsGrouping_26_Trt01An_03"
            },
            {
              "groupingId": "AnlsGrouping_28_Aebodsys",
              "groupValue": "CARDIAC DISORDERS"
            }
          ],
          "rawValue": "12",
          "formattedValue": "12"
        },
        {
          "operationId": "Mth_03_01_n",
          "resultGroups": [
            {
              "groupingId": "AnlsGrouping_26_Trt01An",
              "groupId": "AnlsGrouping_26_Trt01An_03"
            },
            {
              "groupingId": "AnlsGrouping_28_Aebodsys",
              "groupValue": "INFECTIONS AND INFESTATIONS"
            }
          ],
          "rawValue": "16",
          "formattedValue": "16"
        },
        {
          "operationId": "Mth_03_01_n",
          "resultGroups": [
            {
              "groupingId": "AnlsGrouping_26_Trt01An",
              "groupId": "AnlsGrouping_26_Trt01An_03"
            },
            {
              "groupingId": "AnlsGrouping_28_Aebodsys",
              "groupValue": "GASTROINTESTINAL DISORDERS"
            }
          ],
          "rawValue": "17",
          "formattedValue": "17"
        },
        {
          "operationId": "Mth_03_01_n",
          "resultGroups": [
            {
              "groupingId": "AnlsGrouping_26_Trt01An",
              "groupId": "AnlsGrouping_26_Trt01An_03"
            },
            {
              "groupingId": "AnlsGrouping_28_Aebodsys",
              "groupValue": "SKIN AND SUBCUTANEOUS TISSUE DISORDERS"
            }
          ],
          "rawValue": "20",
          "formattedValue": "20"
        },
        {
          "operationId": "Mth_03_01_n",
          "resultGroups": [
            {
              "groupingId": "AnlsGrouping_26_Trt01An",
              "groupId": "AnlsGrouping_26_Trt01An_03"
            },
            {
              "groupingId": "AnlsGrouping_28_Aebodsys",
              "groupValue": "GENERAL DISORDERS AND ADMINISTRATION SITE CONDITIONS"
            }
          ],
          "rawValue": "21",
          "formattedValue": "21"
        },
        {
          "operationId": "Mth_03_02_%",
          "resultGroups": [
            {
              "groupingId": "AnlsGrouping_26_Trt01An",
              "groupId": "AnlsGrouping_26_Trt01An_01"
            },
            {
              "groupingId": "AnlsGrouping_28_Aebodsys",
              "groupValue": "HEPATOBILIARY DISORDERS"
            }
          ],
          "rawValue": "0",
          "formattedValue": "(0.0)"
        },
        {
          "operationId": "Mth_03_02_%",
          "resultGroups": [
            {
              "groupingId": "AnlsGrouping_26_Trt01An",
              "groupId": "AnlsGrouping_26_Trt01An_01"
            },
            {
              "groupingId": "AnlsGrouping_28_Aebodsys",
              "groupValue": "REPRODUCTIVE SYSTEM AND BREAST DISORDERS"
            }
          ],
          "rawValue": "0",
          "formattedValue": "(0.0)"
        },
        {
          "operationId": "Mth_03_02_%",
          "resultGroups": [
            {
              "groupingId": "AnlsGrouping_26_Trt01An",
              "groupId": "AnlsGrouping_26_Trt01An_01"
            },
            {
              "groupingId": "AnlsGrouping_28_Aebodsys",
              "groupValue": "SOCIAL CIRCUMSTANCES"
            }
          ],
          "rawValue": "0",
          "formattedValue": "(0.0)"
        },
        {
          "operationId": "Mth_03_02_%",
          "resultGroups": [
            {
              "groupingId": "AnlsGrouping_26_Trt01An",
              "groupId": "AnlsGrouping_26_Trt01An_01"
            },
            {
              "groupingId": "AnlsGrouping_28_Aebodsys",
              "groupValue": "CONGENITAL, FAMILIAL AND GENETIC DISORDERS"
            }
          ],
          "rawValue": "1.1904761905",
          "formattedValue": "(1.2)"
        },
        {
          "operationId": "Mth_03_02_%",
          "resultGroups": [
            {
              "groupingId": "AnlsGrouping_26_Trt01An",
              "groupId": "AnlsGrouping_26_Trt01An_01"
            },
            {
              "groupingId": "AnlsGrouping_28_Aebodsys",
              "groupValue": "IMMUNE SYSTEM DISORDERS"
            }
          ],
          "rawValue": "1.1904761905",
          "formattedValue": "(1.2)"
        },
        {
          "operationId": "Mth_03_02_%",
          "resultGroups": [
            {
              "groupingId": "AnlsGrouping_26_Trt01An",
              "groupId": "AnlsGrouping_26_Trt01An_01"
            },
            {
              "groupingId": "AnlsGrouping_28_Aebodsys",
              "groupValue": "METABOLISM AND NUTRITION DISORDERS"
            }
          ],
          "rawValue": "1.1904761905",
          "formattedValue": "(1.2)"
        },
        {
          "operationId": "Mth_03_02_%",
          "resultGroups": [
            {
              "groupingId": "AnlsGrouping_26_Trt01An",
              "groupId": "AnlsGrouping_26_Trt01An_01"
            },
            {
              "groupingId": "AnlsGrouping_28_Aebodsys",
              "groupValue": "SURGICAL AND MEDICAL PROCEDURES"
            }
          ],
          "rawValue": "1.1904761905",
          "formattedValue": "(1.2)"
        },
        {
          "operationId": "Mth_03_02_%",
          "resultGroups": [
            {
              "groupingId": "AnlsGrouping_26_Trt01An",
              "groupId": "AnlsGrouping_26_Trt01An_01"
            },
            {
              "groupingId": "AnlsGrouping_28_Aebodsys",
              "groupValue": "EAR AND LABYRINTH DISORDERS"
            }
          ],
          "rawValue": "2.380952381",
          "formattedValue": "(2.4)"
        },
        {
          "operationId": "Mth_03_02_%",
          "resultGroups": [
            {
              "groupingId": "AnlsGrouping_26_Trt01An",
              "groupId": "AnlsGrouping_26_Trt01An_01"
            },
            {
              "groupingId": "AnlsGrouping_28_Aebodsys",
              "groupValue": "EYE DISORDERS"
            }
          ],
          "rawValue": "2.380952381",
          "formattedValue": "(2.4)"
        },
        {
          "operationId": "Mth_03_02_%",
          "resultGroups": [
            {
              "groupingId": "AnlsGrouping_26_Trt01An",
              "groupId": "AnlsGrouping_26_Trt01An_01"
            },
            {
              "groupingId": "AnlsGrouping_28_Aebodsys",
              "groupValue": "NEOPLASMS BENIGN, MALIGNANT AND UNSPECIFIED (INCL CYSTS AND POLYPS)"
            }
          ],
          "rawValue": "2.380952381",
          "formattedValue": "(2.4)"
        },
        {
          "operationId": "Mth_03_02_%",
          "resultGroups": [
            {
              "groupingId": "AnlsGrouping_26_Trt01An",
              "groupId": "AnlsGrouping_26_Trt01An_01"
            },
            {
              "groupingId": "AnlsGrouping_28_Aebodsys",
              "groupValue": "RENAL AND URINARY DISORDERS"
            }
          ],
          "rawValue": "3.5714285714",
          "formattedValue": "(3.6)"
        },
        {
          "operationId": "Mth_03_02_%",
          "resultGroups": [
            {
              "groupingId": "AnlsGrouping_26_Trt01An",
              "groupId": "AnlsGrouping_26_Trt01An_01"
            },
            {
              "groupingId": "AnlsGrouping_28_Aebodsys",
              "groupValue": "VASCULAR DISORDERS"
            }
          ],
          "rawValue": "3.5714285714",
          "formattedValue": "(3.6)"
        },
        {
          "operationId": "Mth_03_02_%",
          "resultGroups": [
            {
              "groupingId": "AnlsGrouping_26_Trt01An",
              "groupId": "AnlsGrouping_26_Trt01An_01"
            },
            {
              "groupingId": "AnlsGrouping_28_Aebodsys",
              "groupValue": "INJURY, POISONING AND PROCEDURAL COMPLICATIONS"
            }
          ],
          "rawValue": "5.9523809524",
          "formattedValue": "(6.0)"
        },
        {
          "operationId": "Mth_03_02_%",
          "resultGroups": [
            {
              "groupingId": "AnlsGrouping_26_Trt01An",
              "groupId": "AnlsGrouping_26_Trt01An_01"
            },
            {
              "groupingId": "AnlsGrouping_28_Aebodsys",
              "groupValue": "INVESTIGATIONS"
            }
          ],
          "rawValue": "7.1428571429",
          "formattedValue": "(7.1)"
        },
        {
          "operationId": "Mth_03_02_%",
          "resultGroups": [
            {
              "groupingId": "AnlsGrouping_26_Trt01An",
              "groupId": "AnlsGrouping_26_Trt01An_01"
            },
            {
              "groupingId": "AnlsGrouping_28_Aebodsys",
              "groupValue": "MUSCULOSKELETAL AND CONNECTIVE TISSUE DISORDERS"
            }
          ],
          "rawValue": "8.3333333333",
          "formattedValue": "(8.3)"
        },
        {
          "operationId": "Mth_03_02_%",
          "resultGroups": [
            {
              "groupingId": "AnlsGrouping_26_Trt01An",
              "groupId": "AnlsGrouping_26_Trt01An_01"
            },
            {
              "groupingId": "AnlsGrouping_28_Aebodsys",
              "groupValue": "INFECTIONS AND INFESTATIONS"
            }
          ],
          "rawValue": "10.714285714",
          "formattedValue": "(10.7)"
        },
        {
          "operationId": "Mth_03_02_%",
          "resultGroups": [
            {
              "groupingId": "AnlsGrouping_26_Trt01An",
              "groupId": "AnlsGrouping_26_Trt01An_01"
            },
            {
              "groupingId": "AnlsGrouping_28_Aebodsys",
              "groupValue": "RESPIRATORY, THORACIC AND MEDIASTINAL DISORDERS"
            }
          ],
          "rawValue": "10.714285714",
          "formattedValue": "(10.7)"
        },
        {
          "operationId": "Mth_03_02_%",
          "resultGroups": [
            {
              "groupingId": "AnlsGrouping_26_Trt01An",
              "groupId": "AnlsGrouping_26_Trt01An_01"
            },
            {
              "groupingId": "AnlsGrouping_28_Aebodsys",
              "groupValue": "PSYCHIATRIC DISORDERS"
            }
          ],
          "rawValue": "11.904761905",
          "formattedValue": "(11.9)"
        },
        {
          "operationId": "Mth_03_02_%",
          "resultGroups": [
            {
              "groupingId": "AnlsGrouping_26_Trt01An",
              "groupId": "AnlsGrouping_26_Trt01An_01"
            },
            {
              "groupingId": "AnlsGrouping_28_Aebodsys",
              "groupValue": "CARDIAC DISORDERS"
            }
          ],
          "rawValue": "15.476190476",
          "formattedValue": "(15.5)"
        },
        {
          "operationId": "Mth_03_02_%",
          "resultGroups": [
            {
              "groupingId": "AnlsGrouping_26_Trt01An",
              "groupId": "AnlsGrouping_26_Trt01An_01"
            },
            {
              "groupingId": "AnlsGrouping_28_Aebodsys",
              "groupValue": "GASTROINTESTINAL DISORDERS"
            }
          ],
          "rawValue": "16.666666667",
          "formattedValue": "(16.7)"
        },
        {
          "operationId": "Mth_03_02_%",
          "resultGroups": [
            {
              "groupingId": "AnlsGrouping_26_Trt01An",
              "groupId": "AnlsGrouping_26_Trt01An_01"
            },
            {
              "groupingId": "AnlsGrouping_28_Aebodsys",
              "groupValue": "NERVOUS SYSTEM DISORDERS"
            }
          ],
          "rawValue": "23.80952381",
          "formattedValue": "(23.8)"
        },
        {
          "operationId": "Mth_03_02_%",
          "resultGroups": [
            {
              "groupingId": "AnlsGrouping_26_Trt01An",
              "groupId": "AnlsGrouping_26_Trt01An_01"
            },
            {
              "groupingId": "AnlsGrouping_28_Aebodsys",
              "groupValue": "SKIN AND SUBCUTANEOUS TISSUE DISORDERS"
            }
          ],
          "rawValue": "46.428571429",
          "formattedValue": "(46.4)"
        },
        {
          "operationId": "Mth_03_02_%",
          "resultGroups": [
            {
              "groupingId": "AnlsGrouping_26_Trt01An",
              "groupId": "AnlsGrouping_26_Trt01An_01"
            },
            {
              "groupingId": "AnlsGrouping_28_Aebodsys",
              "groupValue": "GENERAL DISORDERS AND ADMINISTRATION SITE CONDITIONS"
            }
          ],
          "rawValue": "55.952380952",
          "formattedValue": "(56.0)"
        },
        {
          "operationId": "Mth_03_02_%",
          "resultGroups": [
            {
              "groupingId": "AnlsGrouping_26_Trt01An",
              "groupId": "AnlsGrouping_26_Trt01An_02"
            },
            {
              "groupingId": "AnlsGrouping_28_Aebodsys",
              "groupValue": "HEPATOBILIARY DISORDERS"
            }
          ],
          "rawValue": "0",
          "formattedValue": "(0.0)"
        },
        {
          "operationId": "Mth_03_02_%",
          "resultGroups": [
            {
              "groupingId": "AnlsGrouping_26_Trt01An",
              "groupId": "AnlsGrouping_26_Trt01An_02"
            },
            {
              "groupingId": "AnlsGrouping_28_Aebodsys",
              "groupValue": "IMMUNE SYSTEM DISORDERS"
            }
          ],
          "rawValue": "0",
          "formattedValue": "(0.0)"
        },
        {
          "operationId": "Mth_03_02_%",
          "resultGroups": [
            {
              "groupingId": "AnlsGrouping_26_Trt01An",
              "groupId": "AnlsGrouping_26_Trt01An_02"
            },
            {
              "groupingId": "AnlsGrouping_28_Aebodsys",
              "groupValue": "EAR AND LABYRINTH DISORDERS"
            }
          ],
          "rawValue": "1.1904761905",
          "formattedValue": "(1.2)"
        },
        {
          "operationId": "Mth_03_02_%",
          "resultGroups": [
            {
              "groupingId": "AnlsGrouping_26_Trt01An",
              "groupId": "AnlsGrouping_26_Trt01An_02"
            },
            {
              "groupingId": "AnlsGrouping_28_Aebodsys",
              "groupValue": "EYE DISORDERS"
            }
          ],
          "rawValue": "1.1904761905",
          "formattedValue": "(1.2)"
        },
        {
          "operationId": "Mth_03_02_%",
          "resultGroups": [
            {
              "groupingId": "AnlsGrouping_26_Trt01An",
              "groupId": "AnlsGrouping_26_Trt01An_02"
            },
            {
              "groupingId": "AnlsGrouping_28_Aebodsys",
              "groupValue": "NEOPLASMS BENIGN, MALIGNANT AND UNSPECIFIED (INCL CYSTS AND POLYPS)"
            }
          ],
          "rawValue": "1.1904761905",
          "formattedValue": "(1.2)"
        },
        {
          "operationId": "Mth_03_02_%",
          "resultGroups": [
            {
              "groupingId": "AnlsGrouping_26_Trt01An",
              "groupId": "AnlsGrouping_26_Trt01An_02"
            },
            {
              "groupingId": "AnlsGrouping_28_Aebodsys",
              "groupValue": "REPRODUCTIVE SYSTEM AND BREAST DISORDERS"
            }
          ],
          "rawValue": "1.1904761905",
          "formattedValue": "(1.2)"
        },
        {
          "operationId": "Mth_03_02_%",
          "resultGroups": [
            {
              "groupingId": "AnlsGrouping_26_Trt01An",
              "groupId": "AnlsGrouping_26_Trt01An_02"
            },
            {
              "groupingId": "AnlsGrouping_28_Aebodsys",
              "groupValue": "SOCIAL CIRCUMSTANCES"
            }
          ],
          "rawValue": "1.1904761905",
          "formattedValue": "(1.2)"
        },
        {
          "operationId": "Mth_03_02_%",
          "resultGroups": [
            {
              "groupingId": "AnlsGrouping_26_Trt01An",
              "groupId": "AnlsGrouping_26_Trt01An_02"
            },
            {
              "groupingId": "AnlsGrouping_28_Aebodsys",
              "groupValue": "VASCULAR DISORDERS"
            }
          ],
          "rawValue": "1.1904761905",
          "formattedValue": "(1.2)"
        },
        {
          "operationId": "Mth_03_02_%",
          "resultGroups": [
            {
              "groupingId": "AnlsGrouping_26_Trt01An",
              "groupId": "AnlsGrouping_26_Trt01An_02"
            },
            {
              "groupingId": "AnlsGrouping_28_Aebodsys",
              "groupValue": "CONGENITAL, FAMILIAL AND GENETIC DISORDERS"
            }
          ],
          "rawValue": "2.380952381",
          "formattedValue": "(2.4)"
        },
        {
          "operationId": "Mth_03_02_%",
          "resultGroups": [
            {
              "groupingId": "AnlsGrouping_26_Trt01An",
              "groupId": "AnlsGrouping_26_Trt01An_02"
            },
            {
              "groupingId": "AnlsGrouping_28_Aebodsys",
              "groupValue": "METABOLISM AND NUTRITION DISORDERS"
            }
          ],
          "rawValue": "2.380952381",
          "formattedValue": "(2.4)"
        },
        {
          "operationId": "Mth_03_02_%",
          "resultGroups": [
            {
              "groupingId": "AnlsGrouping_26_Trt01An",
              "groupId": "AnlsGrouping_26_Trt01An_02"
            },
            {
              "groupingId": "AnlsGrouping_28_Aebodsys",
              "groupValue": "SURGICAL AND MEDICAL PROCEDURES"
            }
          ],
          "rawValue": "2.380952381",
          "formattedValue": "(2.4)"
        },
        {
          "operationId": "Mth_03_02_%",
          "resultGroups": [
            {
              "groupingId": "AnlsGrouping_26_Trt01An",
              "groupId": "AnlsGrouping_26_Trt01An_02"
            },
            {
              "groupingId": "AnlsGrouping_28_Aebodsys",
              "groupValue": "RENAL AND URINARY DISORDERS"
            }
          ],
          "rawValue": "3.5714285714",
          "formattedValue": "(3.6)"
        },
        {
          "operationId": "Mth_03_02_%",
          "resultGroups": [
            {
              "groupingId": "AnlsGrouping_26_Trt01An",
              "groupId": "AnlsGrouping_26_Trt01An_02"
            },
            {
              "groupingId": "AnlsGrouping_28_Aebodsys",
              "groupValue": "INJURY, POISONING AND PROCEDURAL COMPLICATIONS"
            }
          ],
          "rawValue": "5.9523809524",
          "formattedValue": "(6.0)"
        },
        {
          "operationId": "Mth_03_02_%",
          "resultGroups": [
            {
              "groupingId": "AnlsGrouping_26_Trt01An",
              "groupId": "AnlsGrouping_26_Trt01An_02"
            },
            {
              "groupingId": "AnlsGrouping_28_Aebodsys",
              "groupValue": "INVESTIGATIONS"
            }
          ],
          "rawValue": "7.1428571429",
          "formattedValue": "(7.1)"
        },
        {
          "operationId": "Mth_03_02_%",
          "resultGroups": [
            {
              "groupingId": "AnlsGrouping_26_Trt01An",
              "groupId": "AnlsGrouping_26_Trt01An_02"
            },
            {
              "groupingId": "AnlsGrouping_28_Aebodsys",
              "groupValue": "MUSCULOSKELETAL AND CONNECTIVE TISSUE DISORDERS"
            }
          ],
          "rawValue": "8.3333333333",
          "formattedValue": "(8.3)"
        },
        {
          "operationId": "Mth_03_02_%",
          "resultGroups": [
            {
              "groupingId": "AnlsGrouping_26_Trt01An",
              "groupId": "AnlsGrouping_26_Trt01An_02"
            },
            {
              "groupingId": "AnlsGrouping_28_Aebodsys",
              "groupValue": "PSYCHIATRIC DISORDERS"
            }
          ],
          "rawValue": "9.5238095238",
          "formattedValue": "(9.5)"
        },
        {
          "operationId": "Mth_03_02_%",
          "resultGroups": [
            {
              "groupingId": "AnlsGrouping_26_Trt01An",
              "groupId": "AnlsGrouping_26_Trt01An_02"
            },
            {
              "groupingId": "AnlsGrouping_28_Aebodsys",
              "groupValue": "RESPIRATORY, THORACIC AND MEDIASTINAL DISORDERS"
            }
          ],
          "rawValue": "11.904761905",
          "formattedValue": "(11.9)"
        },
        {
          "operationId": "Mth_03_02_%",
          "resultGroups": [
            {
              "groupingId": "AnlsGrouping_26_Trt01An",
              "groupId": "AnlsGrouping_26_Trt01An_02"
            },
            {
              "groupingId": "AnlsGrouping_28_Aebodsys",
              "groupValue": "INFECTIONS AND INFESTATIONS"
            }
          ],
          "rawValue": "15.476190476",
          "formattedValue": "(15.5)"
        },
        {
          "operationId": "Mth_03_02_%",
          "resultGroups": [
            {
              "groupingId": "AnlsGrouping_26_Trt01An",
              "groupId": "AnlsGrouping_26_Trt01An_02"
            },
            {
              "groupingId": "AnlsGrouping_28_Aebodsys",
              "groupValue": "CARDIAC DISORDERS"
            }
          ],
          "rawValue": "17.857142857",
          "formattedValue": "(17.9)"
        },
        {
          "operationId": "Mth_03_02_%",
          "resultGroups": [
            {
              "groupingId": "AnlsGrouping_26_Trt01An",
              "groupId": "AnlsGrouping_26_Trt01An_02"
            },
            {
              "groupingId": "AnlsGrouping_28_Aebodsys",
              "groupValue": "GASTROINTESTINAL DISORDERS"
            }
          ],
          "rawValue": "23.80952381",
          "formattedValue": "(23.8)"
        },
        {
          "operationId": "Mth_03_02_%",
          "resultGroups": [
            {
              "groupingId": "AnlsGrouping_26_Trt01An",
              "groupId": "AnlsGrouping_26_Trt01An_02"
            },
            {
              "groupingId": "AnlsGrouping_28_Aebodsys",
              "groupValue": "NERVOUS SYSTEM DISORDERS"
            }
          ],
          "rawValue": "29.761904762",
          "formattedValue": "(29.8)"
        },
        {
          "operationId": "Mth_03_02_%",
          "resultGroups": [
            {
              "groupingId": "AnlsGrouping_26_Trt01An",
              "groupId": "AnlsGrouping_26_Trt01An_02"
            },
            {
              "groupingId": "AnlsGrouping_28_Aebodsys",
              "groupValue": "GENERAL DISORDERS AND ADMINISTRATION SITE CONDITIONS"
            }
          ],
          "rawValue": "47.619047619",
          "formattedValue": "(47.6)"
        },
        {
          "operationId": "Mth_03_02_%",
          "resultGroups": [
            {
              "groupingId": "AnlsGrouping_26_Trt01An",
              "groupId": "AnlsGrouping_26_Trt01An_02"
            },
            {
              "groupingId": "AnlsGrouping_28_Aebodsys",
              "groupValue": "SKIN AND SUBCUTANEOUS TISSUE DISORDERS"
            }
          ],
          "rawValue": "47.619047619",
          "formattedValue": "(47.6)"
        },
        {
          "operationId": "Mth_03_02_%",
          "resultGroups": [
            {
              "groupingId": "AnlsGrouping_26_Trt01An",
              "groupId": "AnlsGrouping_26_Trt01An_03"
            },
            {
              "groupingId": "AnlsGrouping_28_Aebodsys",
              "groupValue": "CONGENITAL, FAMILIAL AND GENETIC DISORDERS"
            }
          ],
          "rawValue": "0",
          "formattedValue": "(0.0)"
        },
        {
          "operationId": "Mth_03_02_%",
          "resultGroups": [
            {
              "groupingId": "AnlsGrouping_26_Trt01An",
              "groupId": "AnlsGrouping_26_Trt01An_03"
            },
            {
              "groupingId": "AnlsGrouping_28_Aebodsys",
              "groupValue": "IMMUNE SYSTEM DISORDERS"
            }
          ],
          "rawValue": "0",
          "formattedValue": "(0.0)"
        },
        {
          "operationId": "Mth_03_02_%",
          "resultGroups": [
            {
              "groupingId": "AnlsGrouping_26_Trt01An",
              "groupId": "AnlsGrouping_26_Trt01An_03"
            },
            {
              "groupingId": "AnlsGrouping_28_Aebodsys",
              "groupValue": "NEOPLASMS BENIGN, MALIGNANT AND UNSPECIFIED (INCL CYSTS AND POLYPS)"
            }
          ],
          "rawValue": "0",
          "formattedValue": "(0.0)"
        },
        {
          "operationId": "Mth_03_02_%",
          "resultGroups": [
            {
              "groupingId": "AnlsGrouping_26_Trt01An",
              "groupId": "AnlsGrouping_26_Trt01An_03"
            },
            {
              "groupingId": "AnlsGrouping_28_Aebodsys",
              "groupValue": "SOCIAL CIRCUMSTANCES"
            }
          ],
          "rawValue": "0",
          "formattedValue": "(0.0)"
        },
        {
          "operationId": "Mth_03_02_%",
          "resultGroups": [
            {
              "groupingId": "AnlsGrouping_26_Trt01An",
              "groupId": "AnlsGrouping_26_Trt01An_03"
            },
            {
              "groupingId": "AnlsGrouping_28_Aebodsys",
              "groupValue": "EAR AND LABYRINTH DISORDERS"
            }
          ],
          "rawValue": "1.1627906977",
          "formattedValue": "(1.2)"
        },
        {
          "operationId": "Mth_03_02_%",
          "resultGroups": [
            {
              "groupingId": "AnlsGrouping_26_Trt01An",
              "groupId": "AnlsGrouping_26_Trt01An_03"
            },
            {
              "groupingId": "AnlsGrouping_28_Aebodsys",
              "groupValue": "HEPATOBILIARY DISORDERS"
            }
          ],
          "rawValue": "1.1627906977",
          "formattedValue": "(1.2)"
        },
        {
          "operationId": "Mth_03_02_%",
          "resultGroups": [
            {
              "groupingId": "AnlsGrouping_26_Trt01An",
              "groupId": "AnlsGrouping_26_Trt01An_03"
            },
            {
              "groupingId": "AnlsGrouping_28_Aebodsys",
              "groupValue": "EYE DISORDERS"
            }
          ],
          "rawValue": "2.3255813953",
          "formattedValue": "(2.3)"
        },
        {
          "operationId": "Mth_03_02_%",
          "resultGroups": [
            {
              "groupingId": "AnlsGrouping_26_Trt01An",
              "groupId": "AnlsGrouping_26_Trt01An_03"
            },
            {
              "groupingId": "AnlsGrouping_28_Aebodsys",
              "groupValue": "REPRODUCTIVE SYSTEM AND BREAST DISORDERS"
            }
          ],
          "rawValue": "2.3255813953",
          "formattedValue": "(2.3)"
        },
        {
          "operationId": "Mth_03_02_%",
          "resultGroups": [
            {
              "groupingId": "AnlsGrouping_26_Trt01An",
              "groupId": "AnlsGrouping_26_Trt01An_03"
            },
            {
              "groupingId": "AnlsGrouping_28_Aebodsys",
              "groupValue": "SURGICAL AND MEDICAL PROCEDURES"
            }
          ],
          "rawValue": "2.3255813953",
          "formattedValue": "(2.3)"
        },
        {
          "operationId": "Mth_03_02_%",
          "resultGroups": [
            {
              "groupingId": "AnlsGrouping_26_Trt01An",
              "groupId": "AnlsGrouping_26_Trt01An_03"
            },
            {
              "groupingId": "AnlsGrouping_28_Aebodsys",
              "groupValue": "VASCULAR DISORDERS"
            }
          ],
          "rawValue": "3.488372093",
          "formattedValue": "(3.5)"
        },
        {
          "operationId": "Mth_03_02_%",
          "resultGroups": [
            {
              "groupingId": "AnlsGrouping_26_Trt01An",
              "groupId": "AnlsGrouping_26_Trt01An_03"
            },
            {
              "groupingId": "AnlsGrouping_28_Aebodsys",
              "groupValue": "INJURY, POISONING AND PROCEDURAL COMPLICATIONS"
            }
          ],
          "rawValue": "4.6511627907",
          "formattedValue": "(4.7)"
        },
        {
          "operationId": "Mth_03_02_%",
          "resultGroups": [
            {
              "groupingId": "AnlsGrouping_26_Trt01An",
              "groupId": "AnlsGrouping_26_Trt01An_03"
            },
            {
              "groupingId": "AnlsGrouping_28_Aebodsys",
              "groupValue": "MUSCULOSKELETAL AND CONNECTIVE TISSUE DISORDERS"
            }
          ],
          "rawValue": "4.6511627907",
          "formattedValue": "(4.7)"
        },
        {
          "operationId": "Mth_03_02_%",
          "resultGroups": [
            {
              "groupingId": "AnlsGrouping_26_Trt01An",
              "groupId": "AnlsGrouping_26_Trt01An_03"
            },
            {
              "groupingId": "AnlsGrouping_28_Aebodsys",
              "groupValue": "RENAL AND URINARY DISORDERS"
            }
          ],
          "rawValue": "4.6511627907",
          "formattedValue": "(4.7)"
        },
        {
          "operationId": "Mth_03_02_%",
          "resultGroups": [
            {
              "groupingId": "AnlsGrouping_26_Trt01An",
              "groupId": "AnlsGrouping_26_Trt01An_03"
            },
            {
              "groupingId": "AnlsGrouping_28_Aebodsys",
              "groupValue": "METABOLISM AND NUTRITION DISORDERS"
            }
          ],
          "rawValue": "6.976744186",
          "formattedValue": "(7.0)"
        },
        {
          "operationId": "Mth_03_02_%",
          "resultGroups": [
            {
              "groupingId": "AnlsGrouping_26_Trt01An",
              "groupId": "AnlsGrouping_26_Trt01An_03"
            },
            {
              "groupingId": "AnlsGrouping_28_Aebodsys",
              "groupValue": "NERVOUS SYSTEM DISORDERS"
            }
          ],
          "rawValue": "9.3023255814",
          "formattedValue": "(9.3)"
        },
        {
          "operationId": "Mth_03_02_%",
          "resultGroups": [
            {
              "groupingId": "AnlsGrouping_26_Trt01An",
              "groupId": "AnlsGrouping_26_Trt01An_03"
            },
            {
              "groupingId": "AnlsGrouping_28_Aebodsys",
              "groupValue": "RESPIRATORY, THORACIC AND MEDIASTINAL DISORDERS"
            }
          ],
          "rawValue": "9.3023255814",
          "formattedValue": "(9.3)"
        },
        {
          "operationId": "Mth_03_02_%",
          "resultGroups": [
            {
              "groupingId": "AnlsGrouping_26_Trt01An",
              "groupId": "AnlsGrouping_26_Trt01An_03"
            },
            {
              "groupingId": "AnlsGrouping_28_Aebodsys",
              "groupValue": "INVESTIGATIONS"
            }
          ],
          "rawValue": "11.627906977",
          "formattedValue": "(11.6)"
        },
        {
          "operationId": "Mth_03_02_%",
          "resultGroups": [
            {
              "groupingId": "AnlsGrouping_26_Trt01An",
              "groupId": "AnlsGrouping_26_Trt01An_03"
            },
            {
              "groupingId": "AnlsGrouping_28_Aebodsys",
              "groupValue": "PSYCHIATRIC DISORDERS"
            }
          ],
          "rawValue": "11.627906977",
          "formattedValue": "(11.6)"
        },
        {
          "operationId": "Mth_03_02_%",
          "resultGroups": [
            {
              "groupingId": "AnlsGrouping_26_Trt01An",
              "groupId": "AnlsGrouping_26_Trt01An_03"
            },
            {
              "groupingId": "AnlsGrouping_28_Aebodsys",
              "groupValue": "CARDIAC DISORDERS"
            }
          ],
          "rawValue": "13.953488372",
          "formattedValue": "(14.0)"
        },
        {
          "operationId": "Mth_03_02_%",
          "resultGroups": [
            {
              "groupingId": "AnlsGrouping_26_Trt01An",
              "groupId": "AnlsGrouping_26_Trt01An_03"
            },
            {
              "groupingId": "AnlsGrouping_28_Aebodsys",
              "groupValue": "INFECTIONS AND INFESTATIONS"
            }
          ],
          "rawValue": "18.604651163",
          "formattedValue": "(18.6)"
        },
        {
          "operationId": "Mth_03_02_%",
          "resultGroups": [
            {
              "groupingId": "AnlsGrouping_26_Trt01An",
              "groupId": "AnlsGrouping_26_Trt01An_03"
            },
            {
              "groupingId": "AnlsGrouping_28_Aebodsys",
              "groupValue": "GASTROINTESTINAL DISORDERS"
            }
          ],
          "rawValue": "19.76744186",
          "formattedValue": "(19.8)"
        },
        {
          "operationId": "Mth_03_02_%",
          "resultGroups": [
            {
              "groupingId": "AnlsGrouping_26_Trt01An",
              "groupId": "AnlsGrouping_26_Trt01An_03"
            },
            {
              "groupingId": "AnlsGrouping_28_Aebodsys",
              "groupValue": "SKIN AND SUBCUTANEOUS TISSUE DISORDERS"
            }
          ],
          "rawValue": "23.255813953",
          "formattedValue": "(23.3)"
        },
        {
          "operationId": "Mth_03_02_%",
          "resultGroups": [
            {
              "groupingId": "AnlsGrouping_26_Trt01An",
              "groupId": "AnlsGrouping_26_Trt01An_03"
            },
            {
              "groupingId": "AnlsGrouping_28_Aebodsys",
              "groupValue": "GENERAL DISORDERS AND ADMINISTRATION SITE CONDITIONS"
            }
          ],
          "rawValue": "24.418604651",
          "formattedValue": "(24.4)"
        }
      ]
    },
    {
      "name": "Comparison of subjects by SOC, Xanomeline Low Dose vs Placebo",
      "id": "An_55",
      "reason": {
        "controlledTerm": "DATA DRIVEN"
      },
      "purpose": {
        "controlledTerm": "SECONDARY OUTCOME MEASURE"
      },
      "methodId": "Mth_03_1",
      "version": 1,
      "categoryIds": [
        "ANSET_01",
        "ANSET_01_ANINT_05"
      ],
      "dataset": "ADAE",
      "variable": "USUBJID",
      "analysisSetId": "AnalysisSet_01",
      "dataSubsetId": "Dss_75",
      "orderedGroupings": [
        {
          "order": 1,
          "groupingId": "AnlsGrouping_26_Trt01An",
          "resultsByGroup": false
        },
        {
          "order": 2,
          "groupingId": "AnlsGrouping_28_Aebodsys",
          "resultsByGroup": true
        }
      ],
      "results": [
        {
          "operationId": "Mth_03_1_01_Risk_Difference_%",
          "resultGroups": [
            {
              "groupingId": "AnlsGrouping_26_Trt01An"
            },
            {
              "groupingId": "AnlsGrouping_28_Aebodsys",
              "groupValue": "INFECTIONS AND INFESTATIONS"
            }
          ],
          "rawValue": "-7.9",
          "formattedValue": "-7.9"
        },
        {
          "operationId": "Mth_03_1_01_Risk_Difference_%",
          "resultGroups": [
            {
              "groupingId": "AnlsGrouping_26_Trt01An"
            },
            {
              "groupingId": "AnlsGrouping_28_Aebodsys",
              "groupValue": "METABOLISM AND NUTRITION DISORDERS"
            }
          ],
          "rawValue": "-5.8",
          "formattedValue": "-5.8"
        },
        {
          "operationId": "Mth_03_1_01_Risk_Difference_%",
          "resultGroups": [
            {
              "groupingId": "AnlsGrouping_26_Trt01An"
            },
            {
              "groupingId": "AnlsGrouping_28_Aebodsys",
              "groupValue": "INVESTIGATIONS"
            }
          ],
          "rawValue": "-4.5",
          "formattedValue": "-4.5"
        },
        {
          "operationId": "Mth_03_1_01_Risk_Difference_%",
          "resultGroups": [
            {
              "groupingId": "AnlsGrouping_26_Trt01An"
            },
            {
              "groupingId": "AnlsGrouping_28_Aebodsys",
              "groupValue": "GASTROINTESTINAL DISORDERS"
            }
          ],
          "rawValue": "-3.1",
          "formattedValue": "-3.1"
        },
        {
          "operationId": "Mth_03_1_01_Risk_Difference_%",
          "resultGroups": [
            {
              "groupingId": "AnlsGrouping_26_Trt01An"
            },
            {
              "groupingId": "AnlsGrouping_28_Aebodsys",
              "groupValue": "REPRODUCTIVE SYSTEM AND BREAST DISORDERS"
            }
          ],
          "rawValue": "-2.3",
          "formattedValue": "-2.3"
        },
        {
          "operationId": "Mth_03_1_01_Risk_Difference_%",
          "resultGroups": [
            {
              "groupingId": "AnlsGrouping_26_Trt01An"
            },
            {
              "groupingId": "AnlsGrouping_28_Aebodsys",
              "groupValue": "HEPATOBILIARY DISORDERS"
            }
          ],
          "rawValue": "-1.2",
          "formattedValue": "-1.2"
        },
        {
          "operationId": "Mth_03_1_01_Risk_Difference_%",
          "resultGroups": [
            {
              "groupingId": "AnlsGrouping_26_Trt01An"
            },
            {
              "groupingId": "AnlsGrouping_28_Aebodsys",
              "groupValue": "SURGICAL AND MEDICAL PROCEDURES"
            }
          ],
          "rawValue": "-1.1",
          "formattedValue": "-1.1"
        },
        {
          "operationId": "Mth_03_1_01_Risk_Difference_%",
          "resultGroups": [
            {
              "groupingId": "AnlsGrouping_26_Trt01An"
            },
            {
              "groupingId": "AnlsGrouping_28_Aebodsys",
              "groupValue": "RENAL AND URINARY DISORDERS"
            }
          ],
          "rawValue": "-1.1",
          "formattedValue": "-1.1"
        },
        {
          "operationId": "Mth_03_1_01_Risk_Difference_%",
          "resultGroups": [
            {
              "groupingId": "AnlsGrouping_26_Trt01An"
            },
            {
              "groupingId": "AnlsGrouping_28_Aebodsys",
              "groupValue": "SOCIAL CIRCUMSTANCES"
            }
          ],
          "rawValue": "0",
          "formattedValue": "0.0"
        },
        {
          "operationId": "Mth_03_1_01_Risk_Difference_%",
          "resultGroups": [
            {
              "groupingId": "AnlsGrouping_26_Trt01An"
            },
            {
              "groupingId": "AnlsGrouping_28_Aebodsys",
              "groupValue": "EYE DISORDERS"
            }
          ],
          "rawValue": "0.1",
          "formattedValue": "0.1"
        },
        {
          "operationId": "Mth_03_1_01_Risk_Difference_%",
          "resultGroups": [
            {
              "groupingId": "AnlsGrouping_26_Trt01An"
            },
            {
              "groupingId": "AnlsGrouping_28_Aebodsys",
              "groupValue": "VASCULAR DISORDERS"
            }
          ],
          "rawValue": "0.1",
          "formattedValue": "0.1"
        },
        {
          "operationId": "Mth_03_1_01_Risk_Difference_%",
          "resultGroups": [
            {
              "groupingId": "AnlsGrouping_26_Trt01An"
            },
            {
              "groupingId": "AnlsGrouping_28_Aebodsys",
              "groupValue": "PSYCHIATRIC DISORDERS"
            }
          ],
          "rawValue": "0.3",
          "formattedValue": "0.3"
        },
        {
          "operationId": "Mth_03_1_01_Risk_Difference_%",
          "resultGroups": [
            {
              "groupingId": "AnlsGrouping_26_Trt01An"
            },
            {
              "groupingId": "AnlsGrouping_28_Aebodsys",
              "groupValue": "CONGENITAL, FAMILIAL AND GENETIC DISORDERS"
            }
          ],
          "rawValue": "1.2",
          "formattedValue": "1.2"
        },
        {
          "operationId": "Mth_03_1_01_Risk_Difference_%",
          "resultGroups": [
            {
              "groupingId": "AnlsGrouping_26_Trt01An"
            },
            {
              "groupingId": "AnlsGrouping_28_Aebodsys",
              "groupValue": "EAR AND LABYRINTH DISORDERS"
            }
          ],
          "rawValue": "1.2",
          "formattedValue": "1.2"
        },
        {
          "operationId": "Mth_03_1_01_Risk_Difference_%",
          "resultGroups": [
            {
              "groupingId": "AnlsGrouping_26_Trt01An"
            },
            {
              "groupingId": "AnlsGrouping_28_Aebodsys",
              "groupValue": "IMMUNE SYSTEM DISORDERS"
            }
          ],
          "rawValue": "1.2",
          "formattedValue": "1.2"
        },
        {
          "operationId": "Mth_03_1_01_Risk_Difference_%",
          "resultGroups": [
            {
              "groupingId": "AnlsGrouping_26_Trt01An"
            },
            {
              "groupingId": "AnlsGrouping_28_Aebodsys",
              "groupValue": "INJURY, POISONING AND PROCEDURAL COMPLICATIONS"
            }
          ],
          "rawValue": "1.3",
          "formattedValue": "1.3"
        },
        {
          "operationId": "Mth_03_1_01_Risk_Difference_%",
          "resultGroups": [
            {
              "groupingId": "AnlsGrouping_26_Trt01An"
            },
            {
              "groupingId": "AnlsGrouping_28_Aebodsys",
              "groupValue": "RESPIRATORY, THORACIC AND MEDIASTINAL DISORDERS"
            }
          ],
          "rawValue": "1.4",
          "formattedValue": "1.4"
        },
        {
          "operationId": "Mth_03_1_01_Risk_Difference_%",
          "resultGroups": [
            {
              "groupingId": "AnlsGrouping_26_Trt01An"
            },
            {
              "groupingId": "AnlsGrouping_28_Aebodsys",
              "groupValue": "CARDIAC DISORDERS"
            }
          ],
          "rawValue": "1.5",
          "formattedValue": "1.5"
        },
        {
          "operationId": "Mth_03_1_01_Risk_Difference_%",
          "resultGroups": [
            {
              "groupingId": "AnlsGrouping_26_Trt01An"
            },
            {
              "groupingId": "AnlsGrouping_28_Aebodsys",
              "groupValue": "NEOPLASMS BENIGN, MALIGNANT AND UNSPECIFIED (INCL CYSTS AND POLYPS)"
            }
          ],
          "rawValue": "2.4",
          "formattedValue": "2.4"
        },
        {
          "operationId": "Mth_03_1_01_Risk_Difference_%",
          "resultGroups": [
            {
              "groupingId": "AnlsGrouping_26_Trt01An"
            },
            {
              "groupingId": "AnlsGrouping_28_Aebodsys",
              "groupValue": "MUSCULOSKELETAL AND CONNECTIVE TISSUE DISORDERS"
            }
          ],
          "rawValue": "3.6",
          "formattedValue": "3.6"
        },
        {
          "operationId": "Mth_03_1_01_Risk_Difference_%",
          "resultGroups": [
            {
              "groupingId": "AnlsGrouping_26_Trt01An"
            },
            {
              "groupingId": "AnlsGrouping_28_Aebodsys",
              "groupValue": "NERVOUS SYSTEM DISORDERS"
            }
          ],
          "rawValue": "14.5",
          "formattedValue": "14.5"
        },
        {
          "operationId": "Mth_03_1_01_Risk_Difference_%",
          "resultGroups": [
            {
              "groupingId": "AnlsGrouping_26_Trt01An"
            },
            {
              "groupingId": "AnlsGrouping_28_Aebodsys",
              "groupValue": "SKIN AND SUBCUTANEOUS TISSUE DISORDERS"
            }
          ],
          "rawValue": "23.1",
          "formattedValue": "23.1"
        },
        {
          "operationId": "Mth_03_1_01_Risk_Difference_%",
          "resultGroups": [
            {
              "groupingId": "AnlsGrouping_26_Trt01An"
            },
            {
              "groupingId": "AnlsGrouping_28_Aebodsys",
              "groupValue": "GENERAL DISORDERS AND ADMINISTRATION SITE CONDITIONS"
            }
          ],
          "rawValue": "31.6",
          "formattedValue": "31.6"
        },
        {
          "operationId": "Mth_03_1_02_95%_CI_Low",
          "resultGroups": [
            {
              "groupingId": "AnlsGrouping_26_Trt01An"
            },
            {
              "groupingId": "AnlsGrouping_28_Aebodsys",
              "groupValue": "INFECTIONS AND INFESTATIONS"
            }
          ],
          "rawValue": "-18.45132561",
          "formattedValue": "-18.5"
        },
        {
          "operationId": "Mth_03_1_02_95%_CI_Low",
          "resultGroups": [
            {
              "groupingId": "AnlsGrouping_26_Trt01An"
            },
            {
              "groupingId": "AnlsGrouping_28_Aebodsys",
              "groupValue": "GASTROINTESTINAL DISORDERS"
            }
          ],
          "rawValue": "-14.69973712",
          "formattedValue": "-14.7"
        },
        {
          "operationId": "Mth_03_1_02_95%_CI_Low",
          "resultGroups": [
            {
              "groupingId": "AnlsGrouping_26_Trt01An"
            },
            {
              "groupingId": "AnlsGrouping_28_Aebodsys",
              "groupValue": "INVESTIGATIONS"
            }
          ],
          "rawValue": "-13.21615831",
          "formattedValue": "-13.2"
        },
        {
          "operationId": "Mth_03_1_02_95%_CI_Low",
          "resultGroups": [
            {
              "groupingId": "AnlsGrouping_26_Trt01An"
            },
            {
              "groupingId": "AnlsGrouping_28_Aebodsys",
              "groupValue": "METABOLISM AND NUTRITION DISORDERS"
            }
          ],
          "rawValue": "-11.67385415",
          "formattedValue": "-11.7"
        },
        {
          "operationId": "Mth_03_1_02_95%_CI_Low",
          "resultGroups": [
            {
              "groupingId": "AnlsGrouping_26_Trt01An"
            },
            {
              "groupingId": "AnlsGrouping_28_Aebodsys",
              "groupValue": "PSYCHIATRIC DISORDERS"
            }
          ],
          "rawValue": "-9.382589305",
          "formattedValue": "-9.4"
        },
        {
          "operationId": "Mth_03_1_02_95%_CI_Low",
          "resultGroups": [
            {
              "groupingId": "AnlsGrouping_26_Trt01An"
            },
            {
              "groupingId": "AnlsGrouping_28_Aebodsys",
              "groupValue": "CARDIAC DISORDERS"
            }
          ],
          "rawValue": "-9.162158943",
          "formattedValue": "-9.2"
        },
        {
          "operationId": "Mth_03_1_02_95%_CI_Low",
          "resultGroups": [
            {
              "groupingId": "AnlsGrouping_26_Trt01An"
            },
            {
              "groupingId": "AnlsGrouping_28_Aebodsys",
              "groupValue": "RESPIRATORY, THORACIC AND MEDIASTINAL DISORDERS"
            }
          ],
          "rawValue": "-7.620978487",
          "formattedValue": "-7.6"
        },
        {
          "operationId": "Mth_03_1_02_95%_CI_Low",
          "resultGroups": [
            {
              "groupingId": "AnlsGrouping_26_Trt01An"
            },
            {
              "groupingId": "AnlsGrouping_28_Aebodsys",
              "groupValue": "RENAL AND URINARY DISORDERS"
            }
          ],
          "rawValue": "-7.089935854",
          "formattedValue": "-7.1"
        },
        {
          "operationId": "Mth_03_1_02_95%_CI_Low",
          "resultGroups": [
            {
              "groupingId": "AnlsGrouping_26_Trt01An"
            },
            {
              "groupingId": "AnlsGrouping_28_Aebodsys",
              "groupValue": "REPRODUCTIVE SYSTEM AND BREAST DISORDERS"
            }
          ],
          "rawValue": "-5.468239802",
          "formattedValue": "-5.5"
        },
        {
          "operationId": "Mth_03_1_02_95%_CI_Low",
          "resultGroups": [
            {
              "groupingId": "AnlsGrouping_26_Trt01An"
            },
            {
              "groupingId": "AnlsGrouping_28_Aebodsys",
              "groupValue": "INJURY, POISONING AND PROCEDURAL COMPLICATIONS"
            }
          ],
          "rawValue": "-5.467690561",
          "formattedValue": "-5.5"
        },
        {
          "operationId": "Mth_03_1_02_95%_CI_Low",
          "resultGroups": [
            {
              "groupingId": "AnlsGrouping_26_Trt01An"
            },
            {
              "groupingId": "AnlsGrouping_28_Aebodsys",
              "groupValue": "VASCULAR DISORDERS"
            }
          ],
          "rawValue": "-5.464037199",
          "formattedValue": "-5.5"
        },
        {
          "operationId": "Mth_03_1_02_95%_CI_Low",
          "resultGroups": [
            {
              "groupingId": "AnlsGrouping_26_Trt01An"
            },
            {
              "groupingId": "AnlsGrouping_28_Aebodsys",
              "groupValue": "SURGICAL AND MEDICAL PROCEDURES"
            }
          ],
          "rawValue": "-5.031906337",
          "formattedValue": "-5.0"
        },
        {
          "operationId": "Mth_03_1_02_95%_CI_Low",
          "resultGroups": [
            {
              "groupingId": "AnlsGrouping_26_Trt01An"
            },
            {
              "groupingId": "AnlsGrouping_28_Aebodsys",
              "groupValue": "EYE DISORDERS"
            }
          ],
          "rawValue": "-4.455251853",
          "formattedValue": "-4.5"
        },
        {
          "operationId": "Mth_03_1_02_95%_CI_Low",
          "resultGroups": [
            {
              "groupingId": "AnlsGrouping_26_Trt01An"
            },
            {
              "groupingId": "AnlsGrouping_28_Aebodsys",
              "groupValue": "MUSCULOSKELETAL AND CONNECTIVE TISSUE DISORDERS"
            }
          ],
          "rawValue": "-3.80379179",
          "formattedValue": "-3.8"
        },
        {
          "operationId": "Mth_03_1_02_95%_CI_Low",
          "resultGroups": [
            {
              "groupingId": "AnlsGrouping_26_Trt01An"
            },
            {
              "groupingId": "AnlsGrouping_28_Aebodsys",
              "groupValue": "HEPATOBILIARY DISORDERS"
            }
          ],
          "rawValue": "-3.501314326",
          "formattedValue": "-3.5"
        },
        {
          "operationId": "Mth_03_1_02_95%_CI_Low",
          "resultGroups": [
            {
              "groupingId": "AnlsGrouping_26_Trt01An"
            },
            {
              "groupingId": "AnlsGrouping_28_Aebodsys",
              "groupValue": "EAR AND LABYRINTH DISORDERS"
            }
          ],
          "rawValue": "-2.801077808",
          "formattedValue": "-2.8"
        },
        {
          "operationId": "Mth_03_1_02_95%_CI_Low",
          "resultGroups": [
            {
              "groupingId": "AnlsGrouping_26_Trt01An"
            },
            {
              "groupingId": "AnlsGrouping_28_Aebodsys",
              "groupValue": "CONGENITAL, FAMILIAL AND GENETIC DISORDERS"
            }
          ],
          "rawValue": "-1.128549763",
          "formattedValue": "-1.1"
        },
        {
          "operationId": "Mth_03_1_02_95%_CI_Low",
          "resultGroups": [
            {
              "groupingId": "AnlsGrouping_26_Trt01An"
            },
            {
              "groupingId": "AnlsGrouping_28_Aebodsys",
              "groupValue": "IMMUNE SYSTEM DISORDERS"
            }
          ],
          "rawValue": "-1.128549763",
          "formattedValue": "-1.1"
        },
        {
          "operationId": "Mth_03_1_02_95%_CI_Low",
          "resultGroups": [
            {
              "groupingId": "AnlsGrouping_26_Trt01An"
            },
            {
              "groupingId": "AnlsGrouping_28_Aebodsys",
              "groupValue": "NEOPLASMS BENIGN, MALIGNANT AND UNSPECIFIED (INCL CYSTS AND POLYPS)"
            }
          ],
          "rawValue": "-0.87300718",
          "formattedValue": "-0.9"
        },
        {
          "operationId": "Mth_03_1_02_95%_CI_Low",
          "resultGroups": [
            {
              "groupingId": "AnlsGrouping_26_Trt01An"
            },
            {
              "groupingId": "AnlsGrouping_28_Aebodsys",
              "groupValue": "SOCIAL CIRCUMSTANCES"
            }
          ],
          "rawValue": "0",
          "formattedValue": "0.0"
        },
        {
          "operationId": "Mth_03_1_02_95%_CI_Low",
          "resultGroups": [
            {
              "groupingId": "AnlsGrouping_26_Trt01An"
            },
            {
              "groupingId": "AnlsGrouping_28_Aebodsys",
              "groupValue": "NERVOUS SYSTEM DISORDERS"
            }
          ],
          "rawValue": "3.517307273",
          "formattedValue": "3.5"
        },
        {
          "operationId": "Mth_03_1_02_95%_CI_Low",
          "resultGroups": [
            {
              "groupingId": "AnlsGrouping_26_Trt01An"
            },
            {
              "groupingId": "AnlsGrouping_28_Aebodsys",
              "groupValue": "SKIN AND SUBCUTANEOUS TISSUE DISORDERS"
            }
          ],
          "rawValue": "9.1870413849",
          "formattedValue": "9.2"
        },
        {
          "operationId": "Mth_03_1_02_95%_CI_Low",
          "resultGroups": [
            {
              "groupingId": "AnlsGrouping_26_Trt01An"
            },
            {
              "groupingId": "AnlsGrouping_28_Aebodsys",
              "groupValue": "GENERAL DISORDERS AND ADMINISTRATION SITE CONDITIONS"
            }
          ],
          "rawValue": "17.632660484",
          "formattedValue": "17.6"
        },
        {
          "operationId": "Mth_03_1_03_95%_CI_High",
          "resultGroups": [
            {
              "groupingId": "AnlsGrouping_26_Trt01An"
            },
            {
              "groupingId": "AnlsGrouping_28_Aebodsys",
              "groupValue": "SOCIAL CIRCUMSTANCES"
            }
          ],
          "rawValue": "0",
          "formattedValue": "0.0"
        },
        {
          "operationId": "Mth_03_1_03_95%_CI_High",
          "resultGroups": [
            {
              "groupingId": "AnlsGrouping_26_Trt01An"
            },
            {
              "groupingId": "AnlsGrouping_28_Aebodsys",
              "groupValue": "METABOLISM AND NUTRITION DISORDERS"
            }
          ],
          "rawValue": "0.0738541525",
          "formattedValue": "0.1"
        },
        {
          "operationId": "Mth_03_1_03_95%_CI_High",
          "resultGroups": [
            {
              "groupingId": "AnlsGrouping_26_Trt01An"
            },
            {
              "groupingId": "AnlsGrouping_28_Aebodsys",
              "groupValue": "REPRODUCTIVE SYSTEM AND BREAST DISORDERS"
            }
          ],
          "rawValue": "0.8682398018",
          "formattedValue": "0.9"
        },
        {
          "operationId": "Mth_03_1_03_95%_CI_High",
          "resultGroups": [
            {
              "groupingId": "AnlsGrouping_26_Trt01An"
            },
            {
              "groupingId": "AnlsGrouping_28_Aebodsys",
              "groupValue": "HEPATOBILIARY DISORDERS"
            }
          ],
          "rawValue": "1.1013143262",
          "formattedValue": "1.1"
        },
        {
          "operationId": "Mth_03_1_03_95%_CI_High",
          "resultGroups": [
            {
              "groupingId": "AnlsGrouping_26_Trt01An"
            },
            {
              "groupingId": "AnlsGrouping_28_Aebodsys",
              "groupValue": "INFECTIONS AND INFESTATIONS"
            }
          ],
          "rawValue": "2.6513256054",
          "formattedValue": "2.7"
        },
        {
          "operationId": "Mth_03_1_03_95%_CI_High",
          "resultGroups": [
            {
              "groupingId": "AnlsGrouping_26_Trt01An"
            },
            {
              "groupingId": "AnlsGrouping_28_Aebodsys",
              "groupValue": "SURGICAL AND MEDICAL PROCEDURES"
            }
          ],
          "rawValue": "2.8319063369",
          "formattedValue": "2.8"
        },
        {
          "operationId": "Mth_03_1_03_95%_CI_High",
          "resultGroups": [
            {
              "groupingId": "AnlsGrouping_26_Trt01An"
            },
            {
              "groupingId": "AnlsGrouping_28_Aebodsys",
              "groupValue": "CONGENITAL, FAMILIAL AND GENETIC DISORDERS"
            }
          ],
          "rawValue": "3.5285497633",
          "formattedValue": "3.5"
        },
        {
          "operationId": "Mth_03_1_03_95%_CI_High",
          "resultGroups": [
            {
              "groupingId": "AnlsGrouping_26_Trt01An"
            },
            {
              "groupingId": "AnlsGrouping_28_Aebodsys",
              "groupValue": "IMMUNE SYSTEM DISORDERS"
            }
          ],
          "rawValue": "3.5285497633",
          "formattedValue": "3.5"
        },
        {
          "operationId": "Mth_03_1_03_95%_CI_High",
          "resultGroups": [
            {
              "groupingId": "AnlsGrouping_26_Trt01An"
            },
            {
              "groupingId": "AnlsGrouping_28_Aebodsys",
              "groupValue": "INVESTIGATIONS"
            }
          ],
          "rawValue": "4.2161583085",
          "formattedValue": "4.2"
        },
        {
          "operationId": "Mth_03_1_03_95%_CI_High",
          "resultGroups": [
            {
              "groupingId": "AnlsGrouping_26_Trt01An"
            },
            {
              "groupingId": "AnlsGrouping_28_Aebodsys",
              "groupValue": "EYE DISORDERS"
            }
          ],
          "rawValue": "4.6552518527",
          "formattedValue": "4.7"
        },
        {
          "operationId": "Mth_03_1_03_95%_CI_High",
          "resultGroups": [
            {
              "groupingId": "AnlsGrouping_26_Trt01An"
            },
            {
              "groupingId": "AnlsGrouping_28_Aebodsys",
              "groupValue": "RENAL AND URINARY DISORDERS"
            }
          ],
          "rawValue": "4.889935854",
          "formattedValue": "4.9"
        },
        {
          "operationId": "Mth_03_1_03_95%_CI_High",
          "resultGroups": [
            {
              "groupingId": "AnlsGrouping_26_Trt01An"
            },
            {
              "groupingId": "AnlsGrouping_28_Aebodsys",
              "groupValue": "EAR AND LABYRINTH DISORDERS"
            }
          ],
          "rawValue": "5.2010778083",
          "formattedValue": "5.2"
        },
        {
          "operationId": "Mth_03_1_03_95%_CI_High",
          "resultGroups": [
            {
              "groupingId": "AnlsGrouping_26_Trt01An"
            },
            {
              "groupingId": "AnlsGrouping_28_Aebodsys",
              "groupValue": "VASCULAR DISORDERS"
            }
          ],
          "rawValue": "5.6640371991",
          "formattedValue": "5.7"
        },
        {
          "operationId": "Mth_03_1_03_95%_CI_High",
          "resultGroups": [
            {
              "groupingId": "AnlsGrouping_26_Trt01An"
            },
            {
              "groupingId": "AnlsGrouping_28_Aebodsys",
              "groupValue": "NEOPLASMS BENIGN, MALIGNANT AND UNSPECIFIED (INCL CYSTS AND POLYPS)"
            }
          ],
          "rawValue": "5.6730071799",
          "formattedValue": "5.7"
        },
        {
          "operationId": "Mth_03_1_03_95%_CI_High",
          "resultGroups": [
            {
              "groupingId": "AnlsGrouping_26_Trt01An"
            },
            {
              "groupingId": "AnlsGrouping_28_Aebodsys",
              "groupValue": "INJURY, POISONING AND PROCEDURAL COMPLICATIONS"
            }
          ],
          "rawValue": "8.0676905614",
          "formattedValue": "8.1"
        },
        {
          "operationId": "Mth_03_1_03_95%_CI_High",
          "resultGroups": [
            {
              "groupingId": "AnlsGrouping_26_Trt01An"
            },
            {
              "groupingId": "AnlsGrouping_28_Aebodsys",
              "groupValue": "GASTROINTESTINAL DISORDERS"
            }
          ],
          "rawValue": "8.4997371194",
          "formattedValue": "8.5"
        },
        {
          "operationId": "Mth_03_1_03_95%_CI_High",
          "resultGroups": [
            {
              "groupingId": "AnlsGrouping_26_Trt01An"
            },
            {
              "groupingId": "AnlsGrouping_28_Aebodsys",
              "groupValue": "PSYCHIATRIC DISORDERS"
            }
          ],
          "rawValue": "9.9825893055",
          "formattedValue": "10.0"
        },
        {
          "operationId": "Mth_03_1_03_95%_CI_High",
          "resultGroups": [
            {
              "groupingId": "AnlsGrouping_26_Trt01An"
            },
            {
              "groupingId": "AnlsGrouping_28_Aebodsys",
              "groupValue": "RESPIRATORY, THORACIC AND MEDIASTINAL DISORDERS"
            }
          ],
          "rawValue": "10.420978487",
          "formattedValue": "10.4"
        },
        {
          "operationId": "Mth_03_1_03_95%_CI_High",
          "resultGroups": [
            {
              "groupingId": "AnlsGrouping_26_Trt01An"
            },
            {
              "groupingId": "AnlsGrouping_28_Aebodsys",
              "groupValue": "MUSCULOSKELETAL AND CONNECTIVE TISSUE DISORDERS"
            }
          ],
          "rawValue": "11.00379179",
          "formattedValue": "11.0"
        },
        {
          "operationId": "Mth_03_1_03_95%_CI_High",
          "resultGroups": [
            {
              "groupingId": "AnlsGrouping_26_Trt01An"
            },
            {
              "groupingId": "AnlsGrouping_28_Aebodsys",
              "groupValue": "CARDIAC DISORDERS"
            }
          ],
          "rawValue": "12.162158943",
          "formattedValue": "12.2"
        },
        {
          "operationId": "Mth_03_1_03_95%_CI_High",
          "resultGroups": [
            {
              "groupingId": "AnlsGrouping_26_Trt01An"
            },
            {
              "groupingId": "AnlsGrouping_28_Aebodsys",
              "groupValue": "NERVOUS SYSTEM DISORDERS"
            }
          ],
          "rawValue": "25.482692727",
          "formattedValue": "25.5"
        },
        {
          "operationId": "Mth_03_1_03_95%_CI_High",
          "resultGroups": [
            {
              "groupingId": "AnlsGrouping_26_Trt01An"
            },
            {
              "groupingId": "AnlsGrouping_28_Aebodsys",
              "groupValue": "SKIN AND SUBCUTANEOUS TISSUE DISORDERS"
            }
          ],
          "rawValue": "37.012958615",
          "formattedValue": "37.0"
        },
        {
          "operationId": "Mth_03_1_03_95%_CI_High",
          "resultGroups": [
            {
              "groupingId": "AnlsGrouping_26_Trt01An"
            },
            {
              "groupingId": "AnlsGrouping_28_Aebodsys",
              "groupValue": "GENERAL DISORDERS AND ADMINISTRATION SITE CONDITIONS"
            }
          ],
          "rawValue": "45.567339516",
          "formattedValue": "45.6"
        }
      ]
    },
    {
      "name": "Comparison of subjects by SOC, Xanomeline High Dose vs Placebo",
      "id": "An_55_1",
      "reason": {
        "controlledTerm": "DATA DRIVEN"
      },
      "purpose": {
        "controlledTerm": "SECONDARY OUTCOME MEASURE"
      },
      "methodId": "Mth_03_1",
      "version": 1,
      "categoryIds": [
        "ANSET_01",
        "ANSET_01_ANINT_05"
      ],
      "dataset": "ADAE",
      "variable": "USUBJID",
      "analysisSetId": "AnalysisSet_01",
      "dataSubsetId": "Dss_76",
      "orderedGroupings": [
        {
          "order": 1,
          "groupingId": "AnlsGrouping_26_Trt01An",
          "resultsByGroup": false
        },
        {
          "order": 2,
          "groupingId": "AnlsGrouping_28_Aebodsys",
          "resultsByGroup": true
        }
      ],
      "results": [
        {
          "operationId": "Mth_03_1_01_Risk_Difference_%",
          "resultGroups": [
            {
              "groupingId": "AnlsGrouping_26_Trt01An"
            },
            {
              "groupingId": "AnlsGrouping_28_Aebodsys",
              "groupValue": "INFECTIONS AND INFESTATIONS"
            }
          ],
          "rawValue": "-7.9",
          "formattedValue": "-3.1"
        },
        {
          "operationId": "Mth_03_1_01_Risk_Difference_%",
          "resultGroups": [
            {
              "groupingId": "AnlsGrouping_26_Trt01An"
            },
            {
              "groupingId": "AnlsGrouping_28_Aebodsys",
              "groupValue": "METABOLISM AND NUTRITION DISORDERS"
            }
          ],
          "rawValue": "-5.8",
          "formattedValue": "-4.6"
        },
        {
          "operationId": "Mth_03_1_01_Risk_Difference_%",
          "resultGroups": [
            {
              "groupingId": "AnlsGrouping_26_Trt01An"
            },
            {
              "groupingId": "AnlsGrouping_28_Aebodsys",
              "groupValue": "INVESTIGATIONS"
            }
          ],
          "rawValue": "-4.5",
          "formattedValue": "-4.5"
        },
        {
          "operationId": "Mth_03_1_01_Risk_Difference_%",
          "resultGroups": [
            {
              "groupingId": "AnlsGrouping_26_Trt01An"
            },
            {
              "groupingId": "AnlsGrouping_28_Aebodsys",
              "groupValue": "GASTROINTESTINAL DISORDERS"
            }
          ],
          "rawValue": "-3.1",
          "formattedValue": "4.0"
        },
        {
          "operationId": "Mth_03_1_01_Risk_Difference_%",
          "resultGroups": [
            {
              "groupingId": "AnlsGrouping_26_Trt01An"
            },
            {
              "groupingId": "AnlsGrouping_28_Aebodsys",
              "groupValue": "REPRODUCTIVE SYSTEM AND BREAST DISORDERS"
            }
          ],
          "rawValue": "-2.3",
          "formattedValue": "-1.1"
        },
        {
          "operationId": "Mth_03_1_01_Risk_Difference_%",
          "resultGroups": [
            {
              "groupingId": "AnlsGrouping_26_Trt01An"
            },
            {
              "groupingId": "AnlsGrouping_28_Aebodsys",
              "groupValue": "HEPATOBILIARY DISORDERS"
            }
          ],
          "rawValue": "-1.2",
          "formattedValue": "-1.2"
        },
        {
          "operationId": "Mth_03_1_01_Risk_Difference_%",
          "resultGroups": [
            {
              "groupingId": "AnlsGrouping_26_Trt01An"
            },
            {
              "groupingId": "AnlsGrouping_28_Aebodsys",
              "groupValue": "SURGICAL AND MEDICAL PROCEDURES"
            }
          ],
          "rawValue": "-1.1",
          "formattedValue": "0.1"
        },
        {
          "operationId": "Mth_03_1_01_Risk_Difference_%",
          "resultGroups": [
            {
              "groupingId": "AnlsGrouping_26_Trt01An"
            },
            {
              "groupingId": "AnlsGrouping_28_Aebodsys",
              "groupValue": "RENAL AND URINARY DISORDERS"
            }
          ],
          "rawValue": "-1.1",
          "formattedValue": "-1.1"
        },
        {
          "operationId": "Mth_03_1_01_Risk_Difference_%",
          "resultGroups": [
            {
              "groupingId": "AnlsGrouping_26_Trt01An"
            },
            {
              "groupingId": "AnlsGrouping_28_Aebodsys",
              "groupValue": "SOCIAL CIRCUMSTANCES"
            }
          ],
          "rawValue": "0",
          "formattedValue": "1.2"
        },
        {
          "operationId": "Mth_03_1_01_Risk_Difference_%",
          "resultGroups": [
            {
              "groupingId": "AnlsGrouping_26_Trt01An"
            },
            {
              "groupingId": "AnlsGrouping_28_Aebodsys",
              "groupValue": "EYE DISORDERS"
            }
          ],
          "rawValue": "0.1",
          "formattedValue": "-1.1"
        },
        {
          "operationId": "Mth_03_1_01_Risk_Difference_%",
          "resultGroups": [
            {
              "groupingId": "AnlsGrouping_26_Trt01An"
            },
            {
              "groupingId": "AnlsGrouping_28_Aebodsys",
              "groupValue": "VASCULAR DISORDERS"
            }
          ],
          "rawValue": "0.1",
          "formattedValue": "-2.3"
        },
        {
          "operationId": "Mth_03_1_01_Risk_Difference_%",
          "resultGroups": [
            {
              "groupingId": "AnlsGrouping_26_Trt01An"
            },
            {
              "groupingId": "AnlsGrouping_28_Aebodsys",
              "groupValue": "PSYCHIATRIC DISORDERS"
            }
          ],
          "rawValue": "0.3",
          "formattedValue": "-2.1"
        },
        {
          "operationId": "Mth_03_1_01_Risk_Difference_%",
          "resultGroups": [
            {
              "groupingId": "AnlsGrouping_26_Trt01An"
            },
            {
              "groupingId": "AnlsGrouping_28_Aebodsys",
              "groupValue": "EAR AND LABYRINTH DISORDERS"
            }
          ],
          "rawValue": "1.2",
          "formattedValue": "0.0"
        },
        {
          "operationId": "Mth_03_1_01_Risk_Difference_%",
          "resultGroups": [
            {
              "groupingId": "AnlsGrouping_26_Trt01An"
            },
            {
              "groupingId": "AnlsGrouping_28_Aebodsys",
              "groupValue": "IMMUNE SYSTEM DISORDERS"
            }
          ],
          "rawValue": "1.2",
          "formattedValue": "0.0"
        },
        {
          "operationId": "Mth_03_1_01_Risk_Difference_%",
          "resultGroups": [
            {
              "groupingId": "AnlsGrouping_26_Trt01An"
            },
            {
              "groupingId": "AnlsGrouping_28_Aebodsys",
              "groupValue": "CONGENITAL, FAMILIAL AND GENETIC DISORDERS"
            }
          ],
          "rawValue": "1.2",
          "formattedValue": "2.4"
        },
        {
          "operationId": "Mth_03_1_01_Risk_Difference_%",
          "resultGroups": [
            {
              "groupingId": "AnlsGrouping_26_Trt01An"
            },
            {
              "groupingId": "AnlsGrouping_28_Aebodsys",
              "groupValue": "INJURY, POISONING AND PROCEDURAL COMPLICATIONS"
            }
          ],
          "rawValue": "1.3",
          "formattedValue": "1.3"
        },
        {
          "operationId": "Mth_03_1_01_Risk_Difference_%",
          "resultGroups": [
            {
              "groupingId": "AnlsGrouping_26_Trt01An"
            },
            {
              "groupingId": "AnlsGrouping_28_Aebodsys",
              "groupValue": "RESPIRATORY, THORACIC AND MEDIASTINAL DISORDERS"
            }
          ],
          "rawValue": "1.4",
          "formattedValue": "2.6"
        },
        {
          "operationId": "Mth_03_1_01_Risk_Difference_%",
          "resultGroups": [
            {
              "groupingId": "AnlsGrouping_26_Trt01An"
            },
            {
              "groupingId": "AnlsGrouping_28_Aebodsys",
              "groupValue": "CARDIAC DISORDERS"
            }
          ],
          "rawValue": "1.5",
          "formattedValue": "3.9"
        },
        {
          "operationId": "Mth_03_1_01_Risk_Difference_%",
          "resultGroups": [
            {
              "groupingId": "AnlsGrouping_26_Trt01An"
            },
            {
              "groupingId": "AnlsGrouping_28_Aebodsys",
              "groupValue": "NEOPLASMS BENIGN, MALIGNANT AND UNSPECIFIED (INCL CYSTS AND POLYPS)"
            }
          ],
          "rawValue": "2.4",
          "formattedValue": "1.2"
        },
        {
          "operationId": "Mth_03_1_01_Risk_Difference_%",
          "resultGroups": [
            {
              "groupingId": "AnlsGrouping_26_Trt01An"
            },
            {
              "groupingId": "AnlsGrouping_28_Aebodsys",
              "groupValue": "MUSCULOSKELETAL AND CONNECTIVE TISSUE DISORDERS"
            }
          ],
          "rawValue": "3.6",
          "formattedValue": "3.6"
        },
        {
          "operationId": "Mth_03_1_01_Risk_Difference_%",
          "resultGroups": [
            {
              "groupingId": "AnlsGrouping_26_Trt01An"
            },
            {
              "groupingId": "AnlsGrouping_28_Aebodsys",
              "groupValue": "NERVOUS SYSTEM DISORDERS"
            }
          ],
          "rawValue": "14.5",
          "formattedValue": "20.5"
        },
        {
          "operationId": "Mth_03_1_01_Risk_Difference_%",
          "resultGroups": [
            {
              "groupingId": "AnlsGrouping_26_Trt01An"
            },
            {
              "groupingId": "AnlsGrouping_28_Aebodsys",
              "groupValue": "SKIN AND SUBCUTANEOUS TISSUE DISORDERS"
            }
          ],
          "rawValue": "23.1",
          "formattedValue": "24.3"
        },
        {
          "operationId": "Mth_03_1_01_Risk_Difference_%",
          "resultGroups": [
            {
              "groupingId": "AnlsGrouping_26_Trt01An"
            },
            {
              "groupingId": "AnlsGrouping_28_Aebodsys",
              "groupValue": "GENERAL DISORDERS AND ADMINISTRATION SITE CONDITIONS"
            }
          ],
          "rawValue": "31.6",
          "formattedValue": "23.2"
        },
        {
          "operationId": "Mth_03_1_02_95%_CI_Low",
          "resultGroups": [
            {
              "groupingId": "AnlsGrouping_26_Trt01An"
            },
            {
              "groupingId": "AnlsGrouping_28_Aebodsys",
              "groupValue": "INFECTIONS AND INFESTATIONS"
            }
          ],
          "rawValue": "-14.39296454",
          "formattedValue": "-14.4"
        },
        {
          "operationId": "Mth_03_1_02_95%_CI_Low",
          "resultGroups": [
            {
              "groupingId": "AnlsGrouping_26_Trt01An"
            },
            {
              "groupingId": "AnlsGrouping_28_Aebodsys",
              "groupValue": "INVESTIGATIONS"
            }
          ],
          "rawValue": "-13.21615831",
          "formattedValue": "-13.2"
        },
        {
          "operationId": "Mth_03_1_02_95%_CI_Low",
          "resultGroups": [
            {
              "groupingId": "AnlsGrouping_26_Trt01An"
            },
            {
              "groupingId": "AnlsGrouping_28_Aebodsys",
              "groupValue": "PSYCHIATRIC DISORDERS"
            }
          ],
          "rawValue": "-11.3263427",
          "formattedValue": "-11.3"
        },
        {
          "operationId": "Mth_03_1_02_95%_CI_Low",
          "resultGroups": [
            {
              "groupingId": "AnlsGrouping_26_Trt01An"
            },
            {
              "groupingId": "AnlsGrouping_28_Aebodsys",
              "groupValue": "METABOLISM AND NUTRITION DISORDERS"
            }
          ],
          "rawValue": "-10.90813717",
          "formattedValue": "-10.9"
        },
        {
          "operationId": "Mth_03_1_02_95%_CI_Low",
          "resultGroups": [
            {
              "groupingId": "AnlsGrouping_26_Trt01An"
            },
            {
              "groupingId": "AnlsGrouping_28_Aebodsys",
              "groupValue": "GASTROINTESTINAL DISORDERS"
            }
          ],
          "rawValue": "-8.404593823",
          "formattedValue": "-8.4"
        },
        {
          "operationId": "Mth_03_1_02_95%_CI_Low",
          "resultGroups": [
            {
              "groupingId": "AnlsGrouping_26_Trt01An"
            },
            {
              "groupingId": "AnlsGrouping_28_Aebodsys",
              "groupValue": "CARDIAC DISORDERS"
            }
          ],
          "rawValue": "-7.099620418",
          "formattedValue": "-7.1"
        },
        {
          "operationId": "Mth_03_1_02_95%_CI_Low",
          "resultGroups": [
            {
              "groupingId": "AnlsGrouping_26_Trt01An"
            },
            {
              "groupingId": "AnlsGrouping_28_Aebodsys",
              "groupValue": "RENAL AND URINARY DISORDERS"
            }
          ],
          "rawValue": "-7.089935854",
          "formattedValue": "-7.1"
        },
        {
          "operationId": "Mth_03_1_02_95%_CI_Low",
          "resultGroups": [
            {
              "groupingId": "AnlsGrouping_26_Trt01An"
            },
            {
              "groupingId": "AnlsGrouping_28_Aebodsys",
              "groupValue": "VASCULAR DISORDERS"
            }
          ],
          "rawValue": "-6.828725864",
          "formattedValue": "-6.8"
        },
        {
          "operationId": "Mth_03_1_02_95%_CI_Low",
          "resultGroups": [
            {
              "groupingId": "AnlsGrouping_26_Trt01An"
            },
            {
              "groupingId": "AnlsGrouping_28_Aebodsys",
              "groupValue": "RESPIRATORY, THORACIC AND MEDIASTINAL DISORDERS"
            }
          ],
          "rawValue": "-6.653419091",
          "formattedValue": "-6.7"
        },
        {
          "operationId": "Mth_03_1_02_95%_CI_Low",
          "resultGroups": [
            {
              "groupingId": "AnlsGrouping_26_Trt01An"
            },
            {
              "groupingId": "AnlsGrouping_28_Aebodsys",
              "groupValue": "INJURY, POISONING AND PROCEDURAL COMPLICATIONS"
            }
          ],
          "rawValue": "-5.467690561",
          "formattedValue": "-5.5"
        },
        {
          "operationId": "Mth_03_1_02_95%_CI_Low",
          "resultGroups": [
            {
              "groupingId": "AnlsGrouping_26_Trt01An"
            },
            {
              "groupingId": "AnlsGrouping_28_Aebodsys",
              "groupValue": "EYE DISORDERS"
            }
          ],
          "rawValue": "-5.031906337",
          "formattedValue": "-5.0"
        },
        {
          "operationId": "Mth_03_1_02_95%_CI_Low",
          "resultGroups": [
            {
              "groupingId": "AnlsGrouping_26_Trt01An"
            },
            {
              "groupingId": "AnlsGrouping_28_Aebodsys",
              "groupValue": "REPRODUCTIVE SYSTEM AND BREAST DISORDERS"
            }
          ],
          "rawValue": "-5.031906337",
          "formattedValue": "-5.0"
        },
        {
          "operationId": "Mth_03_1_02_95%_CI_Low",
          "resultGroups": [
            {
              "groupingId": "AnlsGrouping_26_Trt01An"
            },
            {
              "groupingId": "AnlsGrouping_28_Aebodsys",
              "groupValue": "SURGICAL AND MEDICAL PROCEDURES"
            }
          ],
          "rawValue": "-4.455251853",
          "formattedValue": "-4.5"
        },
        {
          "operationId": "Mth_03_1_02_95%_CI_Low",
          "resultGroups": [
            {
              "groupingId": "AnlsGrouping_26_Trt01An"
            },
            {
              "groupingId": "AnlsGrouping_28_Aebodsys",
              "groupValue": "MUSCULOSKELETAL AND CONNECTIVE TISSUE DISORDERS"
            }
          ],
          "rawValue": "-3.80379179",
          "formattedValue": "-3.8"
        },
        {
          "operationId": "Mth_03_1_02_95%_CI_Low",
          "resultGroups": [
            {
              "groupingId": "AnlsGrouping_26_Trt01An"
            },
            {
              "groupingId": "AnlsGrouping_28_Aebodsys",
              "groupValue": "HEPATOBILIARY DISORDERS"
            }
          ],
          "rawValue": "-3.501314326",
          "formattedValue": "-3.5"
        },
        {
          "operationId": "Mth_03_1_02_95%_CI_Low",
          "resultGroups": [
            {
              "groupingId": "AnlsGrouping_26_Trt01An"
            },
            {
              "groupingId": "AnlsGrouping_28_Aebodsys",
              "groupValue": "EAR AND LABYRINTH DISORDERS"
            }
          ],
          "rawValue": "-3.273864937",
          "formattedValue": "-3.3"
        },
        {
          "operationId": "Mth_03_1_02_95%_CI_Low",
          "resultGroups": [
            {
              "groupingId": "AnlsGrouping_26_Trt01An"
            },
            {
              "groupingId": "AnlsGrouping_28_Aebodsys",
              "groupValue": "NEOPLASMS BENIGN, MALIGNANT AND UNSPECIFIED (INCL CYSTS AND POLYPS)"
            }
          ],
          "rawValue": "-1.128549763",
          "formattedValue": "-1.1"
        },
        {
          "operationId": "Mth_03_1_02_95%_CI_Low",
          "resultGroups": [
            {
              "groupingId": "AnlsGrouping_26_Trt01An"
            },
            {
              "groupingId": "AnlsGrouping_28_Aebodsys",
              "groupValue": "SOCIAL CIRCUMSTANCES"
            }
          ],
          "rawValue": "-1.128549763",
          "formattedValue": "-1.1"
        },
        {
          "operationId": "Mth_03_1_02_95%_CI_Low",
          "resultGroups": [
            {
              "groupingId": "AnlsGrouping_26_Trt01An"
            },
            {
              "groupingId": "AnlsGrouping_28_Aebodsys",
              "groupValue": "CONGENITAL, FAMILIAL AND GENETIC DISORDERS"
            }
          ],
          "rawValue": "-0.87300718",
          "formattedValue": "-0.9"
        },
        {
          "operationId": "Mth_03_1_02_95%_CI_Low",
          "resultGroups": [
            {
              "groupingId": "AnlsGrouping_26_Trt01An"
            },
            {
              "groupingId": "AnlsGrouping_28_Aebodsys",
              "groupValue": "IMMUNE SYSTEM DISORDERS"
            }
          ],
          "rawValue": "0",
          "formattedValue": "0.0"
        },
        {
          "operationId": "Mth_03_1_02_95%_CI_Low",
          "resultGroups": [
            {
              "groupingId": "AnlsGrouping_26_Trt01An"
            },
            {
              "groupingId": "AnlsGrouping_28_Aebodsys",
              "groupValue": "NERVOUS SYSTEM DISORDERS"
            }
          ],
          "rawValue": "8.9521993637",
          "formattedValue": "9.0"
        },
        {
          "operationId": "Mth_03_1_02_95%_CI_Low",
          "resultGroups": [
            {
              "groupingId": "AnlsGrouping_26_Trt01An"
            },
            {
              "groupingId": "AnlsGrouping_28_Aebodsys",
              "groupValue": "GENERAL DISORDERS AND ADMINISTRATION SITE CONDITIONS"
            }
          ],
          "rawValue": "9.1832404192",
          "formattedValue": "9.2"
        },
        {
          "operationId": "Mth_03_1_02_95%_CI_Low",
          "resultGroups": [
            {
              "groupingId": "AnlsGrouping_26_Trt01An"
            },
            {
              "groupingId": "AnlsGrouping_28_Aebodsys",
              "groupValue": "SKIN AND SUBCUTANEOUS TISSUE DISORDERS"
            }
          ],
          "rawValue": "10.375212841",
          "formattedValue": "10.4"
        },
        {
          "operationId": "Mth_03_1_03_95%_CI_High",
          "resultGroups": [
            {
              "groupingId": "AnlsGrouping_26_Trt01An"
            },
            {
              "groupingId": "AnlsGrouping_28_Aebodsys",
              "groupValue": "IMMUNE SYSTEM DISORDERS"
            }
          ],
          "rawValue": "0",
          "formattedValue": "0.0"
        },
        {
          "operationId": "Mth_03_1_03_95%_CI_High",
          "resultGroups": [
            {
              "groupingId": "AnlsGrouping_26_Trt01An"
            },
            {
              "groupingId": "AnlsGrouping_28_Aebodsys",
              "groupValue": "HEPATOBILIARY DISORDERS"
            }
          ],
          "rawValue": "1.1013143262",
          "formattedValue": "1.1"
        },
        {
          "operationId": "Mth_03_1_03_95%_CI_High",
          "resultGroups": [
            {
              "groupingId": "AnlsGrouping_26_Trt01An"
            },
            {
              "groupingId": "AnlsGrouping_28_Aebodsys",
              "groupValue": "METABOLISM AND NUTRITION DISORDERS"
            }
          ],
          "rawValue": "1.7081371739",
          "formattedValue": "1.7"
        },
        {
          "operationId": "Mth_03_1_03_95%_CI_High",
          "resultGroups": [
            {
              "groupingId": "AnlsGrouping_26_Trt01An"
            },
            {
              "groupingId": "AnlsGrouping_28_Aebodsys",
              "groupValue": "VASCULAR DISORDERS"
            }
          ],
          "rawValue": "2.2287258642",
          "formattedValue": "2.2"
        },
        {
          "operationId": "Mth_03_1_03_95%_CI_High",
          "resultGroups": [
            {
              "groupingId": "AnlsGrouping_26_Trt01An"
            },
            {
              "groupingId": "AnlsGrouping_28_Aebodsys",
              "groupValue": "EYE DISORDERS"
            }
          ],
          "rawValue": "2.8319063369",
          "formattedValue": "2.8"
        },
        {
          "operationId": "Mth_03_1_03_95%_CI_High",
          "resultGroups": [
            {
              "groupingId": "AnlsGrouping_26_Trt01An"
            },
            {
              "groupingId": "AnlsGrouping_28_Aebodsys",
              "groupValue": "REPRODUCTIVE SYSTEM AND BREAST DISORDERS"
            }
          ],
          "rawValue": "2.8319063369",
          "formattedValue": "2.8"
        },
        {
          "operationId": "Mth_03_1_03_95%_CI_High",
          "resultGroups": [
            {
              "groupingId": "AnlsGrouping_26_Trt01An"
            },
            {
              "groupingId": "AnlsGrouping_28_Aebodsys",
              "groupValue": "EAR AND LABYRINTH DISORDERS"
            }
          ],
          "rawValue": "3.2738649373",
          "formattedValue": "3.3"
        },
        {
          "operationId": "Mth_03_1_03_95%_CI_High",
          "resultGroups": [
            {
              "groupingId": "AnlsGrouping_26_Trt01An"
            },
            {
              "groupingId": "AnlsGrouping_28_Aebodsys",
              "groupValue": "NEOPLASMS BENIGN, MALIGNANT AND UNSPECIFIED (INCL CYSTS AND POLYPS)"
            }
          ],
          "rawValue": "3.5285497633",
          "formattedValue": "3.5"
        },
        {
          "operationId": "Mth_03_1_03_95%_CI_High",
          "resultGroups": [
            {
              "groupingId": "AnlsGrouping_26_Trt01An"
            },
            {
              "groupingId": "AnlsGrouping_28_Aebodsys",
              "groupValue": "SOCIAL CIRCUMSTANCES"
            }
          ],
          "rawValue": "3.5285497633",
          "formattedValue": "3.5"
        },
        {
          "operationId": "Mth_03_1_03_95%_CI_High",
          "resultGroups": [
            {
              "groupingId": "AnlsGrouping_26_Trt01An"
            },
            {
              "groupingId": "AnlsGrouping_28_Aebodsys",
              "groupValue": "INVESTIGATIONS"
            }
          ],
          "rawValue": "4.2161583085",
          "formattedValue": "4.2"
        },
        {
          "operationId": "Mth_03_1_03_95%_CI_High",
          "resultGroups": [
            {
              "groupingId": "AnlsGrouping_26_Trt01An"
            },
            {
              "groupingId": "AnlsGrouping_28_Aebodsys",
              "groupValue": "SURGICAL AND MEDICAL PROCEDURES"
            }
          ],
          "rawValue": "4.6552518527",
          "formattedValue": "4.7"
        },
        {
          "operationId": "Mth_03_1_03_95%_CI_High",
          "resultGroups": [
            {
              "groupingId": "AnlsGrouping_26_Trt01An"
            },
            {
              "groupingId": "AnlsGrouping_28_Aebodsys",
              "groupValue": "RENAL AND URINARY DISORDERS"
            }
          ],
          "rawValue": "4.889935854",
          "formattedValue": "4.9"
        },
        {
          "operationId": "Mth_03_1_03_95%_CI_High",
          "resultGroups": [
            {
              "groupingId": "AnlsGrouping_26_Trt01An"
            },
            {
              "groupingId": "AnlsGrouping_28_Aebodsys",
              "groupValue": "CONGENITAL, FAMILIAL AND GENETIC DISORDERS"
            }
          ],
          "rawValue": "5.6730071799",
          "formattedValue": "5.7"
        },
        {
          "operationId": "Mth_03_1_03_95%_CI_High",
          "resultGroups": [
            {
              "groupingId": "AnlsGrouping_26_Trt01An"
            },
            {
              "groupingId": "AnlsGrouping_28_Aebodsys",
              "groupValue": "PSYCHIATRIC DISORDERS"
            }
          ],
          "rawValue": "7.1263427022",
          "formattedValue": "7.1"
        },
        {
          "operationId": "Mth_03_1_03_95%_CI_High",
          "resultGroups": [
            {
              "groupingId": "AnlsGrouping_26_Trt01An"
            },
            {
              "groupingId": "AnlsGrouping_28_Aebodsys",
              "groupValue": "INJURY, POISONING AND PROCEDURAL COMPLICATIONS"
            }
          ],
          "rawValue": "8.0676905614",
          "formattedValue": "8.1"
        },
        {
          "operationId": "Mth_03_1_03_95%_CI_High",
          "resultGroups": [
            {
              "groupingId": "AnlsGrouping_26_Trt01An"
            },
            {
              "groupingId": "AnlsGrouping_28_Aebodsys",
              "groupValue": "INFECTIONS AND INFESTATIONS"
            }
          ],
          "rawValue": "8.1929645369",
          "formattedValue": "8.2"
        },
        {
          "operationId": "Mth_03_1_03_95%_CI_High",
          "resultGroups": [
            {
              "groupingId": "AnlsGrouping_26_Trt01An"
            },
            {
              "groupingId": "AnlsGrouping_28_Aebodsys",
              "groupValue": "MUSCULOSKELETAL AND CONNECTIVE TISSUE DISORDERS"
            }
          ],
          "rawValue": "11.00379179",
          "formattedValue": "11.0"
        },
        {
          "operationId": "Mth_03_1_03_95%_CI_High",
          "resultGroups": [
            {
              "groupingId": "AnlsGrouping_26_Trt01An"
            },
            {
              "groupingId": "AnlsGrouping_28_Aebodsys",
              "groupValue": "RESPIRATORY, THORACIC AND MEDIASTINAL DISORDERS"
            }
          ],
          "rawValue": "11.853419091",
          "formattedValue": "11.9"
        },
        {
          "operationId": "Mth_03_1_03_95%_CI_High",
          "resultGroups": [
            {
              "groupingId": "AnlsGrouping_26_Trt01An"
            },
            {
              "groupingId": "AnlsGrouping_28_Aebodsys",
              "groupValue": "CARDIAC DISORDERS"
            }
          ],
          "rawValue": "14.899620418",
          "formattedValue": "14.9"
        },
        {
          "operationId": "Mth_03_1_03_95%_CI_High",
          "resultGroups": [
            {
              "groupingId": "AnlsGrouping_26_Trt01An"
            },
            {
              "groupingId": "AnlsGrouping_28_Aebodsys",
              "groupValue": "GASTROINTESTINAL DISORDERS"
            }
          ],
          "rawValue": "16.404593823",
          "formattedValue": "16.4"
        },
        {
          "operationId": "Mth_03_1_03_95%_CI_High",
          "resultGroups": [
            {
              "groupingId": "AnlsGrouping_26_Trt01An"
            },
            {
              "groupingId": "AnlsGrouping_28_Aebodsys",
              "groupValue": "NERVOUS SYSTEM DISORDERS"
            }
          ],
          "rawValue": "32.047800636",
          "formattedValue": "32.0"
        },
        {
          "operationId": "Mth_03_1_03_95%_CI_High",
          "resultGroups": [
            {
              "groupingId": "AnlsGrouping_26_Trt01An"
            },
            {
              "groupingId": "AnlsGrouping_28_Aebodsys",
              "groupValue": "GENERAL DISORDERS AND ADMINISTRATION SITE CONDITIONS"
            }
          ],
          "rawValue": "37.216759581",
          "formattedValue": "37.2"
        },
        {
          "operationId": "Mth_03_1_03_95%_CI_High",
          "resultGroups": [
            {
              "groupingId": "AnlsGrouping_26_Trt01An"
            },
            {
              "groupingId": "AnlsGrouping_28_Aebodsys",
              "groupValue": "SKIN AND SUBCUTANEOUS TISSUE DISORDERS"
            }
          ],
          "rawValue": "38.224787159",
          "formattedValue": "38.2"
        }
      ]
    },
    {
      "name": "Summary of subjects by Treatment and PT",
      "id": "An_56",
      "reason": {
        "controlledTerm": "DATA DRIVEN"
      },
      "purpose": {
        "controlledTerm": "SECONDARY OUTCOME MEASURE"
      },
      "methodId": "Mth_03",
      "version": 1,
      "categoryIds": [
        "ANSET_01",
        "ANSET_01_ANINT_05"
      ],
      "dataset": "ADAE",
      "variable": "USUBJID",
      "analysisSetId": "AnalysisSet_01",
      "dataSubsetId": "Dss_17",
      "orderedGroupings": [
        {
          "order": 1,
          "groupingId": "AnlsGrouping_26_Trt01An",
          "resultsByGroup": true
        },
        {
          "order": 2,
          "groupingId": "AnlsGrouping_28_Aebodsys",
          "resultsByGroup": true
        },
        {
          "order": 3,
          "groupingId": "AnlsGrouping_29_Aedecod",
          "resultsByGroup": true
        }
      ],
      "referencedAnalysisOperations": [
        {
          "referencedOperationRelationshipId": "Mth_03_pct_NUM",
          "analysisId": "An_56"
        },
        {
          "referencedOperationRelationshipId": "Mth_03_pct_DEN",
          "analysisId": "An_51"
        }
      ],
      "results": [
        {
          "operationId": "Mth_03_02_%",
          "resultGroups": [
            {
              "groupingId": "AnlsGrouping_26_Trt01An",
              "groupId": "AnlsGrouping_26_Trt01An_01"
            },
            {
              "groupingId": "AnlsGrouping_28_Aebodsys",
              "groupValue": "CARDIAC DISORDERS"
            },
            {
              "groupingId": "AnlsGrouping_29_Aedecod",
              "groupValue": "ATRIAL FLUTTER"
            }
          ],
          "rawValue": "1.1904761905",
          "formattedValue": "(1.2)"
        },
        {
          "operationId": "Mth_03_02_%",
          "resultGroups": [
            {
              "groupingId": "AnlsGrouping_26_Trt01An",
              "groupId": "AnlsGrouping_26_Trt01An_01"
            },
            {
              "groupingId": "AnlsGrouping_28_Aebodsys",
              "groupValue": "CARDIAC DISORDERS"
            },
            {
              "groupingId": "AnlsGrouping_29_Aedecod",
              "groupValue": "ATRIOVENTRICULAR BLOCK FIRST DEGREE"
            }
          ],
          "rawValue": "1.1904761905",
          "formattedValue": "(1.2)"
        },
        {
          "operationId": "Mth_03_02_%",
          "resultGroups": [
            {
              "groupingId": "AnlsGrouping_26_Trt01An",
              "groupId": "AnlsGrouping_26_Trt01An_01"
            },
            {
              "groupingId": "AnlsGrouping_28_Aebodsys",
              "groupValue": "CARDIAC DISORDERS"
            },
            {
              "groupingId": "AnlsGrouping_29_Aedecod",
              "groupValue": "BUNDLE BRANCH BLOCK RIGHT"
            }
          ],
          "rawValue": "1.1904761905",
          "formattedValue": "(1.2)"
        },
        {
          "operationId": "Mth_03_02_%",
          "resultGroups": [
            {
              "groupingId": "AnlsGrouping_26_Trt01An",
              "groupId": "AnlsGrouping_26_Trt01An_01"
            },
            {
              "groupingId": "AnlsGrouping_28_Aebodsys",
              "groupValue": "CARDIAC DISORDERS"
            },
            {
              "groupingId": "AnlsGrouping_29_Aedecod",
              "groupValue": "SUPRAVENTRICULAR EXTRASYSTOLES"
            }
          ],
          "rawValue": "1.1904761905",
          "formattedValue": "(1.2)"
        },
        {
          "operationId": "Mth_03_02_%",
          "resultGroups": [
            {
              "groupingId": "AnlsGrouping_26_Trt01An",
              "groupId": "AnlsGrouping_26_Trt01An_01"
            },
            {
              "groupingId": "AnlsGrouping_28_Aebodsys",
              "groupValue": "CARDIAC DISORDERS"
            },
            {
              "groupingId": "AnlsGrouping_29_Aedecod",
              "groupValue": "SUPRAVENTRICULAR TACHYCARDIA"
            }
          ],
          "rawValue": "1.1904761905",
          "formattedValue": "(1.2)"
        },
        {
          "operationId": "Mth_03_02_%",
          "resultGroups": [
            {
              "groupingId": "AnlsGrouping_26_Trt01An",
              "groupId": "AnlsGrouping_26_Trt01An_01"
            },
            {
              "groupingId": "AnlsGrouping_28_Aebodsys",
              "groupValue": "CARDIAC DISORDERS"
            },
            {
              "groupingId": "AnlsGrouping_29_Aedecod",
              "groupValue": "WOLFF-PARKINSON-WHITE SYNDROME"
            }
          ],
          "rawValue": "1.1904761905",
          "formattedValue": "(1.2)"
        },
        {
          "operationId": "Mth_03_02_%",
          "resultGroups": [
            {
              "groupingId": "AnlsGrouping_26_Trt01An",
              "groupId": "AnlsGrouping_26_Trt01An_01"
            },
            {
              "groupingId": "AnlsGrouping_28_Aebodsys",
              "groupValue": "EAR AND LABYRINTH DISORDERS"
            },
            {
              "groupingId": "AnlsGrouping_29_Aedecod",
              "groupValue": "VERTIGO"
            }
          ],
          "rawValue": "1.1904761905",
          "formattedValue": "(1.2)"
        },
        {
          "operationId": "Mth_03_02_%",
          "resultGroups": [
            {
              "groupingId": "AnlsGrouping_26_Trt01An",
              "groupId": "AnlsGrouping_26_Trt01An_01"
            },
            {
              "groupingId": "AnlsGrouping_28_Aebodsys",
              "groupValue": "EYE DISORDERS"
            },
            {
              "groupingId": "AnlsGrouping_29_Aedecod",
              "groupValue": "VISION BLURRED"
            }
          ],
          "rawValue": "1.1904761905",
          "formattedValue": "(1.2)"
        },
        {
          "operationId": "Mth_03_02_%",
          "resultGroups": [
            {
              "groupingId": "AnlsGrouping_26_Trt01An",
              "groupId": "AnlsGrouping_26_Trt01An_01"
            },
            {
              "groupingId": "AnlsGrouping_28_Aebodsys",
              "groupValue": "GASTROINTESTINAL DISORDERS"
            },
            {
              "groupingId": "AnlsGrouping_29_Aedecod",
              "groupValue": "DYSPEPSIA"
            }
          ],
          "rawValue": "1.1904761905",
          "formattedValue": "(1.2)"
        },
        {
          "operationId": "Mth_03_02_%",
          "resultGroups": [
            {
              "groupingId": "AnlsGrouping_26_Trt01An",
              "groupId": "AnlsGrouping_26_Trt01An_01"
            },
            {
              "groupingId": "AnlsGrouping_28_Aebodsys",
              "groupValue": "GASTROINTESTINAL DISORDERS"
            },
            {
              "groupingId": "AnlsGrouping_29_Aedecod",
              "groupValue": "DYSPHAGIA"
            }
          ],
          "rawValue": "1.1904761905",
          "formattedValue": "(1.2)"
        },
        {
          "operationId": "Mth_03_02_%",
          "resultGroups": [
            {
              "groupingId": "AnlsGrouping_26_Trt01An",
              "groupId": "AnlsGrouping_26_Trt01An_01"
            },
            {
              "groupingId": "AnlsGrouping_28_Aebodsys",
              "groupValue": "GASTROINTESTINAL DISORDERS"
            },
            {
              "groupingId": "AnlsGrouping_29_Aedecod",
              "groupValue": "RECTAL HAEMORRHAGE"
            }
          ],
          "rawValue": "1.1904761905",
          "formattedValue": "(1.2)"
        },
        {
          "operationId": "Mth_03_02_%",
          "resultGroups": [
            {
              "groupingId": "AnlsGrouping_26_Trt01An",
              "groupId": "AnlsGrouping_26_Trt01An_01"
            },
            {
              "groupingId": "AnlsGrouping_28_Aebodsys",
              "groupValue": "GENERAL DISORDERS AND ADMINISTRATION SITE CONDITIONS"
            },
            {
              "groupingId": "AnlsGrouping_29_Aedecod",
              "groupValue": "APPLICATION SITE DESQUAMATION"
            }
          ],
          "rawValue": "1.1904761905",
          "formattedValue": "(1.2)"
        },
        {
          "operationId": "Mth_03_02_%",
          "resultGroups": [
            {
              "groupingId": "AnlsGrouping_26_Trt01An",
              "groupId": "AnlsGrouping_26_Trt01An_01"
            },
            {
              "groupingId": "AnlsGrouping_28_Aebodsys",
              "groupValue": "GENERAL DISORDERS AND ADMINISTRATION SITE CONDITIONS"
            },
            {
              "groupingId": "AnlsGrouping_29_Aedecod",
              "groupValue": "APPLICATION SITE DISCOLOURATION"
            }
          ],
          "rawValue": "1.1904761905",
          "formattedValue": "(1.2)"
        },
        {
          "operationId": "Mth_03_02_%",
          "resultGroups": [
            {
              "groupingId": "AnlsGrouping_26_Trt01An",
              "groupId": "AnlsGrouping_26_Trt01An_01"
            },
            {
              "groupingId": "AnlsGrouping_28_Aebodsys",
              "groupValue": "GENERAL DISORDERS AND ADMINISTRATION SITE CONDITIONS"
            },
            {
              "groupingId": "AnlsGrouping_29_Aedecod",
              "groupValue": "APPLICATION SITE SWELLING"
            }
          ],
          "rawValue": "1.1904761905",
          "formattedValue": "(1.2)"
        },
        {
          "operationId": "Mth_03_02_%",
          "resultGroups": [
            {
              "groupingId": "AnlsGrouping_26_Trt01An",
              "groupId": "AnlsGrouping_26_Trt01An_01"
            },
            {
              "groupingId": "AnlsGrouping_28_Aebodsys",
              "groupValue": "GENERAL DISORDERS AND ADMINISTRATION SITE CONDITIONS"
            },
            {
              "groupingId": "AnlsGrouping_29_Aedecod",
              "groupValue": "APPLICATION SITE WARMTH"
            }
          ],
          "rawValue": "1.1904761905",
          "formattedValue": "(1.2)"
        },
        {
          "operationId": "Mth_03_02_%",
          "resultGroups": [
            {
              "groupingId": "AnlsGrouping_26_Trt01An",
              "groupId": "AnlsGrouping_26_Trt01An_01"
            },
            {
              "groupingId": "AnlsGrouping_28_Aebodsys",
              "groupValue": "GENERAL DISORDERS AND ADMINISTRATION SITE CONDITIONS"
            },
            {
              "groupingId": "AnlsGrouping_29_Aedecod",
              "groupValue": "CHILLS"
            }
          ],
          "rawValue": "1.1904761905",
          "formattedValue": "(1.2)"
        },
        {
          "operationId": "Mth_03_02_%",
          "resultGroups": [
            {
              "groupingId": "AnlsGrouping_26_Trt01An",
              "groupId": "AnlsGrouping_26_Trt01An_01"
            },
            {
              "groupingId": "AnlsGrouping_28_Aebodsys",
              "groupValue": "GENERAL DISORDERS AND ADMINISTRATION SITE CONDITIONS"
            },
            {
              "groupingId": "AnlsGrouping_29_Aedecod",
              "groupValue": "INFLAMMATION"
            }
          ],
          "rawValue": "1.1904761905",
          "formattedValue": "(1.2)"
        },
        {
          "operationId": "Mth_03_02_%",
          "resultGroups": [
            {
              "groupingId": "AnlsGrouping_26_Trt01An",
              "groupId": "AnlsGrouping_26_Trt01An_01"
            },
            {
              "groupingId": "AnlsGrouping_28_Aebodsys",
              "groupValue": "GENERAL DISORDERS AND ADMINISTRATION SITE CONDITIONS"
            },
            {
              "groupingId": "AnlsGrouping_29_Aedecod",
              "groupValue": "MALAISE"
            }
          ],
          "rawValue": "1.1904761905",
          "formattedValue": "(1.2)"
        },
        {
          "operationId": "Mth_03_02_%",
          "resultGroups": [
            {
              "groupingId": "AnlsGrouping_26_Trt01An",
              "groupId": "AnlsGrouping_26_Trt01An_01"
            },
            {
              "groupingId": "AnlsGrouping_28_Aebodsys",
              "groupValue": "GENERAL DISORDERS AND ADMINISTRATION SITE CONDITIONS"
            },
            {
              "groupingId": "AnlsGrouping_29_Aedecod",
              "groupValue": "OEDEMA PERIPHERAL"
            }
          ],
          "rawValue": "1.1904761905",
          "formattedValue": "(1.2)"
        },
        {
          "operationId": "Mth_03_02_%",
          "resultGroups": [
            {
              "groupingId": "AnlsGrouping_26_Trt01An",
              "groupId": "AnlsGrouping_26_Trt01An_01"
            },
            {
              "groupingId": "AnlsGrouping_28_Aebodsys",
              "groupValue": "GENERAL DISORDERS AND ADMINISTRATION SITE CONDITIONS"
            },
            {
              "groupingId": "AnlsGrouping_29_Aedecod",
              "groupValue": "PAIN"
            }
          ],
          "rawValue": "1.1904761905",
          "formattedValue": "(1.2)"
        },
        {
          "operationId": "Mth_03_02_%",
          "resultGroups": [
            {
              "groupingId": "AnlsGrouping_26_Trt01An",
              "groupId": "AnlsGrouping_26_Trt01An_01"
            },
            {
              "groupingId": "AnlsGrouping_28_Aebodsys",
              "groupValue": "GENERAL DISORDERS AND ADMINISTRATION SITE CONDITIONS"
            },
            {
              "groupingId": "AnlsGrouping_29_Aedecod",
              "groupValue": "SECRETION DISCHARGE"
            }
          ],
          "rawValue": "1.1904761905",
          "formattedValue": "(1.2)"
        },
        {
          "operationId": "Mth_03_02_%",
          "resultGroups": [
            {
              "groupingId": "AnlsGrouping_26_Trt01An",
              "groupId": "AnlsGrouping_26_Trt01An_01"
            },
            {
              "groupingId": "AnlsGrouping_28_Aebodsys",
              "groupValue": "GENERAL DISORDERS AND ADMINISTRATION SITE CONDITIONS"
            },
            {
              "groupingId": "AnlsGrouping_29_Aedecod",
              "groupValue": "SUDDEN DEATH"
            }
          ],
          "rawValue": "1.1904761905",
          "formattedValue": "(1.2)"
        },
        {
          "operationId": "Mth_03_02_%",
          "resultGroups": [
            {
              "groupingId": "AnlsGrouping_26_Trt01An",
              "groupId": "AnlsGrouping_26_Trt01An_01"
            },
            {
              "groupingId": "AnlsGrouping_28_Aebodsys",
              "groupValue": "GENERAL DISORDERS AND ADMINISTRATION SITE CONDITIONS"
            },
            {
              "groupingId": "AnlsGrouping_29_Aedecod",
              "groupValue": "SWELLING"
            }
          ],
          "rawValue": "1.1904761905",
          "formattedValue": "(1.2)"
        },
        {
          "operationId": "Mth_03_02_%",
          "resultGroups": [
            {
              "groupingId": "AnlsGrouping_26_Trt01An",
              "groupId": "AnlsGrouping_26_Trt01An_01"
            },
            {
              "groupingId": "AnlsGrouping_28_Aebodsys",
              "groupValue": "GENERAL DISORDERS AND ADMINISTRATION SITE CONDITIONS"
            },
            {
              "groupingId": "AnlsGrouping_29_Aedecod",
              "groupValue": "ULCER"
            }
          ],
          "rawValue": "1.1904761905",
          "formattedValue": "(1.2)"
        },
        {
          "operationId": "Mth_03_02_%",
          "resultGroups": [
            {
              "groupingId": "AnlsGrouping_26_Trt01An",
              "groupId": "AnlsGrouping_26_Trt01An_01"
            },
            {
              "groupingId": "AnlsGrouping_28_Aebodsys",
              "groupValue": "INFECTIONS AND INFESTATIONS"
            },
            {
              "groupingId": "AnlsGrouping_29_Aedecod",
              "groupValue": "INFLUENZA"
            }
          ],
          "rawValue": "1.1904761905",
          "formattedValue": "(1.2)"
        },
        {
          "operationId": "Mth_03_02_%",
          "resultGroups": [
            {
              "groupingId": "AnlsGrouping_26_Trt01An",
              "groupId": "AnlsGrouping_26_Trt01An_01"
            },
            {
              "groupingId": "AnlsGrouping_28_Aebodsys",
              "groupValue": "INFECTIONS AND INFESTATIONS"
            },
            {
              "groupingId": "AnlsGrouping_29_Aedecod",
              "groupValue": "PNEUMONIA"
            }
          ],
          "rawValue": "1.1904761905",
          "formattedValue": "(1.2)"
        },
        {
          "operationId": "Mth_03_02_%",
          "resultGroups": [
            {
              "groupingId": "AnlsGrouping_26_Trt01An",
              "groupId": "AnlsGrouping_26_Trt01An_01"
            },
            {
              "groupingId": "AnlsGrouping_28_Aebodsys",
              "groupValue": "INFECTIONS AND INFESTATIONS"
            },
            {
              "groupingId": "AnlsGrouping_29_Aedecod",
              "groupValue": "UPPER RESPIRATORY TRACT INFECTION"
            }
          ],
          "rawValue": "1.1904761905",
          "formattedValue": "(1.2)"
        },
        {
          "operationId": "Mth_03_02_%",
          "resultGroups": [
            {
              "groupingId": "AnlsGrouping_26_Trt01An",
              "groupId": "AnlsGrouping_26_Trt01An_01"
            },
            {
              "groupingId": "AnlsGrouping_28_Aebodsys",
              "groupValue": "INFECTIONS AND INFESTATIONS"
            },
            {
              "groupingId": "AnlsGrouping_29_Aedecod",
              "groupValue": "VIRAL INFECTION"
            }
          ],
          "rawValue": "1.1904761905",
          "formattedValue": "(1.2)"
        },
        {
          "operationId": "Mth_03_02_%",
          "resultGroups": [
            {
              "groupingId": "AnlsGrouping_26_Trt01An",
              "groupId": "AnlsGrouping_26_Trt01An_01"
            },
            {
              "groupingId": "AnlsGrouping_28_Aebodsys",
              "groupValue": "INJURY, POISONING AND PROCEDURAL COMPLICATIONS"
            },
            {
              "groupingId": "AnlsGrouping_29_Aedecod",
              "groupValue": "EXCORIATION"
            }
          ],
          "rawValue": "1.1904761905",
          "formattedValue": "(1.2)"
        },
        {
          "operationId": "Mth_03_02_%",
          "resultGroups": [
            {
              "groupingId": "AnlsGrouping_26_Trt01An",
              "groupId": "AnlsGrouping_26_Trt01An_01"
            },
            {
              "groupingId": "AnlsGrouping_28_Aebodsys",
              "groupValue": "INJURY, POISONING AND PROCEDURAL COMPLICATIONS"
            },
            {
              "groupingId": "AnlsGrouping_29_Aedecod",
              "groupValue": "JOINT DISLOCATION"
            }
          ],
          "rawValue": "1.1904761905",
          "formattedValue": "(1.2)"
        },
        {
          "operationId": "Mth_03_02_%",
          "resultGroups": [
            {
              "groupingId": "AnlsGrouping_26_Trt01An",
              "groupId": "AnlsGrouping_26_Trt01An_01"
            },
            {
              "groupingId": "AnlsGrouping_28_Aebodsys",
              "groupValue": "INJURY, POISONING AND PROCEDURAL COMPLICATIONS"
            },
            {
              "groupingId": "AnlsGrouping_29_Aedecod",
              "groupValue": "WOUND"
            }
          ],
          "rawValue": "1.1904761905",
          "formattedValue": "(1.2)"
        },
        {
          "operationId": "Mth_03_02_%",
          "resultGroups": [
            {
              "groupingId": "AnlsGrouping_26_Trt01An",
              "groupId": "AnlsGrouping_26_Trt01An_01"
            },
            {
              "groupingId": "AnlsGrouping_28_Aebodsys",
              "groupValue": "INVESTIGATIONS"
            },
            {
              "groupingId": "AnlsGrouping_29_Aedecod",
              "groupValue": "BODY TEMPERATURE INCREASED"
            }
          ],
          "rawValue": "1.1904761905",
          "formattedValue": "(1.2)"
        },
        {
          "operationId": "Mth_03_02_%",
          "resultGroups": [
            {
              "groupingId": "AnlsGrouping_26_Trt01An",
              "groupId": "AnlsGrouping_26_Trt01An_01"
            },
            {
              "groupingId": "AnlsGrouping_28_Aebodsys",
              "groupValue": "INVESTIGATIONS"
            },
            {
              "groupingId": "AnlsGrouping_29_Aedecod",
              "groupValue": "ELECTROCARDIOGRAM ST SEGMENT DEPRESSION"
            }
          ],
          "rawValue": "1.1904761905",
          "formattedValue": "(1.2)"
        },
        {
          "operationId": "Mth_03_02_%",
          "resultGroups": [
            {
              "groupingId": "AnlsGrouping_26_Trt01An",
              "groupId": "AnlsGrouping_26_Trt01An_01"
            },
            {
              "groupingId": "AnlsGrouping_28_Aebodsys",
              "groupValue": "INVESTIGATIONS"
            },
            {
              "groupingId": "AnlsGrouping_29_Aedecod",
              "groupValue": "ELECTROCARDIOGRAM T WAVE AMPLITUDE DECREASED"
            }
          ],
          "rawValue": "1.1904761905",
          "formattedValue": "(1.2)"
        },
        {
          "operationId": "Mth_03_02_%",
          "resultGroups": [
            {
              "groupingId": "AnlsGrouping_26_Trt01An",
              "groupId": "AnlsGrouping_26_Trt01An_01"
            },
            {
              "groupingId": "AnlsGrouping_28_Aebodsys",
              "groupValue": "INVESTIGATIONS"
            },
            {
              "groupingId": "AnlsGrouping_29_Aedecod",
              "groupValue": "ELECTROCARDIOGRAM T WAVE INVERSION"
            }
          ],
          "rawValue": "1.1904761905",
          "formattedValue": "(1.2)"
        },
        {
          "operationId": "Mth_03_02_%",
          "resultGroups": [
            {
              "groupingId": "AnlsGrouping_26_Trt01An",
              "groupId": "AnlsGrouping_26_Trt01An_01"
            },
            {
              "groupingId": "AnlsGrouping_28_Aebodsys",
              "groupValue": "INVESTIGATIONS"
            },
            {
              "groupingId": "AnlsGrouping_29_Aedecod",
              "groupValue": "NASAL MUCOSA BIOPSY"
            }
          ],
          "rawValue": "1.1904761905",
          "formattedValue": "(1.2)"
        },
        {
          "operationId": "Mth_03_02_%",
          "resultGroups": [
            {
              "groupingId": "AnlsGrouping_26_Trt01An",
              "groupId": "AnlsGrouping_26_Trt01An_01"
            },
            {
              "groupingId": "AnlsGrouping_28_Aebodsys",
              "groupValue": "MUSCULOSKELETAL AND CONNECTIVE TISSUE DISORDERS"
            },
            {
              "groupingId": "AnlsGrouping_29_Aedecod",
              "groupValue": "BACK PAIN"
            }
          ],
          "rawValue": "1.1904761905",
          "formattedValue": "(1.2)"
        },
        {
          "operationId": "Mth_03_02_%",
          "resultGroups": [
            {
              "groupingId": "AnlsGrouping_26_Trt01An",
              "groupId": "AnlsGrouping_26_Trt01An_01"
            },
            {
              "groupingId": "AnlsGrouping_28_Aebodsys",
              "groupValue": "MUSCULOSKELETAL AND CONNECTIVE TISSUE DISORDERS"
            },
            {
              "groupingId": "AnlsGrouping_29_Aedecod",
              "groupValue": "MUSCLE SPASMS"
            }
          ],
          "rawValue": "1.1904761905",
          "formattedValue": "(1.2)"
        },
        {
          "operationId": "Mth_03_02_%",
          "resultGroups": [
            {
              "groupingId": "AnlsGrouping_26_Trt01An",
              "groupId": "AnlsGrouping_26_Trt01An_01"
            },
            {
              "groupingId": "AnlsGrouping_28_Aebodsys",
              "groupValue": "MUSCULOSKELETAL AND CONNECTIVE TISSUE DISORDERS"
            },
            {
              "groupingId": "AnlsGrouping_29_Aedecod",
              "groupValue": "MUSCULAR WEAKNESS"
            }
          ],
          "rawValue": "1.1904761905",
          "formattedValue": "(1.2)"
        },
        {
          "operationId": "Mth_03_02_%",
          "resultGroups": [
            {
              "groupingId": "AnlsGrouping_26_Trt01An",
              "groupId": "AnlsGrouping_26_Trt01An_01"
            },
            {
              "groupingId": "AnlsGrouping_28_Aebodsys",
              "groupValue": "NEOPLASMS BENIGN, MALIGNANT AND UNSPECIFIED (INCL CYSTS AND POLYPS)"
            },
            {
              "groupingId": "AnlsGrouping_29_Aedecod",
              "groupValue": "MALIGNANT FIBROUS HISTIOCYTOMA"
            }
          ],
          "rawValue": "1.1904761905",
          "formattedValue": "(1.2)"
        },
        {
          "operationId": "Mth_03_02_%",
          "resultGroups": [
            {
              "groupingId": "AnlsGrouping_26_Trt01An",
              "groupId": "AnlsGrouping_26_Trt01An_01"
            },
            {
              "groupingId": "AnlsGrouping_28_Aebodsys",
              "groupValue": "NERVOUS SYSTEM DISORDERS"
            },
            {
              "groupingId": "AnlsGrouping_29_Aedecod",
              "groupValue": "COMPLEX PARTIAL SEIZURES"
            }
          ],
          "rawValue": "1.1904761905",
          "formattedValue": "(1.2)"
        },
        {
          "operationId": "Mth_03_02_%",
          "resultGroups": [
            {
              "groupingId": "AnlsGrouping_26_Trt01An",
              "groupId": "AnlsGrouping_26_Trt01An_01"
            },
            {
              "groupingId": "AnlsGrouping_28_Aebodsys",
              "groupValue": "NERVOUS SYSTEM DISORDERS"
            },
            {
              "groupingId": "AnlsGrouping_29_Aedecod",
              "groupValue": "COORDINATION ABNORMAL"
            }
          ],
          "rawValue": "1.1904761905",
          "formattedValue": "(1.2)"
        },
        {
          "operationId": "Mth_03_02_%",
          "resultGroups": [
            {
              "groupingId": "AnlsGrouping_26_Trt01An",
              "groupId": "AnlsGrouping_26_Trt01An_01"
            },
            {
              "groupingId": "AnlsGrouping_28_Aebodsys",
              "groupValue": "NERVOUS SYSTEM DISORDERS"
            },
            {
              "groupingId": "AnlsGrouping_29_Aedecod",
              "groupValue": "HEMIANOPIA HOMONYMOUS"
            }
          ],
          "rawValue": "1.1904761905",
          "formattedValue": "(1.2)"
        },
        {
          "operationId": "Mth_03_02_%",
          "resultGroups": [
            {
              "groupingId": "AnlsGrouping_26_Trt01An",
              "groupId": "AnlsGrouping_26_Trt01An_01"
            },
            {
              "groupingId": "AnlsGrouping_28_Aebodsys",
              "groupValue": "NERVOUS SYSTEM DISORDERS"
            },
            {
              "groupingId": "AnlsGrouping_29_Aedecod",
              "groupValue": "LETHARGY"
            }
          ],
          "rawValue": "1.1904761905",
          "formattedValue": "(1.2)"
        },
        {
          "operationId": "Mth_03_02_%",
          "resultGroups": [
            {
              "groupingId": "AnlsGrouping_26_Trt01An",
              "groupId": "AnlsGrouping_26_Trt01An_01"
            },
            {
              "groupingId": "AnlsGrouping_28_Aebodsys",
              "groupValue": "NERVOUS SYSTEM DISORDERS"
            },
            {
              "groupingId": "AnlsGrouping_29_Aedecod",
              "groupValue": "PARAESTHESIA ORAL"
            }
          ],
          "rawValue": "1.1904761905",
          "formattedValue": "(1.2)"
        },
        {
          "operationId": "Mth_03_02_%",
          "resultGroups": [
            {
              "groupingId": "AnlsGrouping_26_Trt01An",
              "groupId": "AnlsGrouping_26_Trt01An_01"
            },
            {
              "groupingId": "AnlsGrouping_28_Aebodsys",
              "groupValue": "NERVOUS SYSTEM DISORDERS"
            },
            {
              "groupingId": "AnlsGrouping_29_Aedecod",
              "groupValue": "STUPOR"
            }
          ],
          "rawValue": "1.1904761905",
          "formattedValue": "(1.2)"
        },
        {
          "operationId": "Mth_03_02_%",
          "resultGroups": [
            {
              "groupingId": "AnlsGrouping_26_Trt01An",
              "groupId": "AnlsGrouping_26_Trt01An_01"
            },
            {
              "groupingId": "AnlsGrouping_28_Aebodsys",
              "groupValue": "PSYCHIATRIC DISORDERS"
            },
            {
              "groupingId": "AnlsGrouping_29_Aedecod",
              "groupValue": "DEPRESSED MOOD"
            }
          ],
          "rawValue": "1.1904761905",
          "formattedValue": "(1.2)"
        },
        {
          "operationId": "Mth_03_02_%",
          "resultGroups": [
            {
              "groupingId": "AnlsGrouping_26_Trt01An",
              "groupId": "AnlsGrouping_26_Trt01An_01"
            },
            {
              "groupingId": "AnlsGrouping_28_Aebodsys",
              "groupValue": "PSYCHIATRIC DISORDERS"
            },
            {
              "groupingId": "AnlsGrouping_29_Aedecod",
              "groupValue": "IRRITABILITY"
            }
          ],
          "rawValue": "1.1904761905",
          "formattedValue": "(1.2)"
        },
        {
          "operationId": "Mth_03_02_%",
          "resultGroups": [
            {
              "groupingId": "AnlsGrouping_26_Trt01An",
              "groupId": "AnlsGrouping_26_Trt01An_01"
            },
            {
              "groupingId": "AnlsGrouping_28_Aebodsys",
              "groupValue": "PSYCHIATRIC DISORDERS"
            },
            {
              "groupingId": "AnlsGrouping_29_Aedecod",
              "groupValue": "RESTLESSNESS"
            }
          ],
          "rawValue": "1.1904761905",
          "formattedValue": "(1.2)"
        },
        {
          "operationId": "Mth_03_02_%",
          "resultGroups": [
            {
              "groupingId": "AnlsGrouping_26_Trt01An",
              "groupId": "AnlsGrouping_26_Trt01An_01"
            },
            {
              "groupingId": "AnlsGrouping_28_Aebodsys",
              "groupValue": "RENAL AND URINARY DISORDERS"
            },
            {
              "groupingId": "AnlsGrouping_29_Aedecod",
              "groupValue": "INCONTINENCE"
            }
          ],
          "rawValue": "1.1904761905",
          "formattedValue": "(1.2)"
        },
        {
          "operationId": "Mth_03_02_%",
          "resultGroups": [
            {
              "groupingId": "AnlsGrouping_26_Trt01An",
              "groupId": "AnlsGrouping_26_Trt01An_01"
            },
            {
              "groupingId": "AnlsGrouping_28_Aebodsys",
              "groupValue": "RENAL AND URINARY DISORDERS"
            },
            {
              "groupingId": "AnlsGrouping_29_Aedecod",
              "groupValue": "MICTURITION URGENCY"
            }
          ],
          "rawValue": "1.1904761905",
          "formattedValue": "(1.2)"
        },
        {
          "operationId": "Mth_03_02_%",
          "resultGroups": [
            {
              "groupingId": "AnlsGrouping_26_Trt01An",
              "groupId": "AnlsGrouping_26_Trt01An_01"
            },
            {
              "groupingId": "AnlsGrouping_28_Aebodsys",
              "groupValue": "RESPIRATORY, THORACIC AND MEDIASTINAL DISORDERS"
            },
            {
              "groupingId": "AnlsGrouping_29_Aedecod",
              "groupValue": "DYSPHONIA"
            }
          ],
          "rawValue": "1.1904761905",
          "formattedValue": "(1.2)"
        },
        {
          "operationId": "Mth_03_02_%",
          "resultGroups": [
            {
              "groupingId": "AnlsGrouping_26_Trt01An",
              "groupId": "AnlsGrouping_26_Trt01An_01"
            },
            {
              "groupingId": "AnlsGrouping_28_Aebodsys",
              "groupValue": "RESPIRATORY, THORACIC AND MEDIASTINAL DISORDERS"
            },
            {
              "groupingId": "AnlsGrouping_29_Aedecod",
              "groupValue": "DYSPNOEA"
            }
          ],
          "rawValue": "1.1904761905",
          "formattedValue": "(1.2)"
        },
        {
          "operationId": "Mth_03_02_%",
          "resultGroups": [
            {
              "groupingId": "AnlsGrouping_26_Trt01An",
              "groupId": "AnlsGrouping_26_Trt01An_01"
            },
            {
              "groupingId": "AnlsGrouping_28_Aebodsys",
              "groupValue": "RESPIRATORY, THORACIC AND MEDIASTINAL DISORDERS"
            },
            {
              "groupingId": "AnlsGrouping_29_Aedecod",
              "groupValue": "EPISTAXIS"
            }
          ],
          "rawValue": "1.1904761905",
          "formattedValue": "(1.2)"
        },
        {
          "operationId": "Mth_03_02_%",
          "resultGroups": [
            {
              "groupingId": "AnlsGrouping_26_Trt01An",
              "groupId": "AnlsGrouping_26_Trt01An_01"
            },
            {
              "groupingId": "AnlsGrouping_28_Aebodsys",
              "groupValue": "RESPIRATORY, THORACIC AND MEDIASTINAL DISORDERS"
            },
            {
              "groupingId": "AnlsGrouping_29_Aedecod",
              "groupValue": "NASAL CONGESTION"
            }
          ],
          "rawValue": "1.1904761905",
          "formattedValue": "(1.2)"
        },
        {
          "operationId": "Mth_03_02_%",
          "resultGroups": [
            {
              "groupingId": "AnlsGrouping_26_Trt01An",
              "groupId": "AnlsGrouping_26_Trt01An_01"
            },
            {
              "groupingId": "AnlsGrouping_28_Aebodsys",
              "groupValue": "RESPIRATORY, THORACIC AND MEDIASTINAL DISORDERS"
            },
            {
              "groupingId": "AnlsGrouping_29_Aedecod",
              "groupValue": "PHARYNGOLARYNGEAL PAIN"
            }
          ],
          "rawValue": "1.1904761905",
          "formattedValue": "(1.2)"
        },
        {
          "operationId": "Mth_03_02_%",
          "resultGroups": [
            {
              "groupingId": "AnlsGrouping_26_Trt01An",
              "groupId": "AnlsGrouping_26_Trt01An_01"
            },
            {
              "groupingId": "AnlsGrouping_28_Aebodsys",
              "groupValue": "RESPIRATORY, THORACIC AND MEDIASTINAL DISORDERS"
            },
            {
              "groupingId": "AnlsGrouping_29_Aedecod",
              "groupValue": "RHINORRHOEA"
            }
          ],
          "rawValue": "1.1904761905",
          "formattedValue": "(1.2)"
        },
        {
          "operationId": "Mth_03_02_%",
          "resultGroups": [
            {
              "groupingId": "AnlsGrouping_26_Trt01An",
              "groupId": "AnlsGrouping_26_Trt01An_01"
            },
            {
              "groupingId": "AnlsGrouping_28_Aebodsys",
              "groupValue": "SKIN AND SUBCUTANEOUS TISSUE DISORDERS"
            },
            {
              "groupingId": "AnlsGrouping_29_Aedecod",
              "groupValue": "DERMATITIS CONTACT"
            }
          ],
          "rawValue": "1.1904761905",
          "formattedValue": "(1.2)"
        },
        {
          "operationId": "Mth_03_02_%",
          "resultGroups": [
            {
              "groupingId": "AnlsGrouping_26_Trt01An",
              "groupId": "AnlsGrouping_26_Trt01An_01"
            },
            {
              "groupingId": "AnlsGrouping_28_Aebodsys",
              "groupValue": "SKIN AND SUBCUTANEOUS TISSUE DISORDERS"
            },
            {
              "groupingId": "AnlsGrouping_29_Aedecod",
              "groupValue": "PRURITUS GENERALISED"
            }
          ],
          "rawValue": "1.1904761905",
          "formattedValue": "(1.2)"
        },
        {
          "operationId": "Mth_03_02_%",
          "resultGroups": [
            {
              "groupingId": "AnlsGrouping_26_Trt01An",
              "groupId": "AnlsGrouping_26_Trt01An_01"
            },
            {
              "groupingId": "AnlsGrouping_28_Aebodsys",
              "groupValue": "SKIN AND SUBCUTANEOUS TISSUE DISORDERS"
            },
            {
              "groupingId": "AnlsGrouping_29_Aedecod",
              "groupValue": "RASH ERYTHEMATOUS"
            }
          ],
          "rawValue": "1.1904761905",
          "formattedValue": "(1.2)"
        },
        {
          "operationId": "Mth_03_02_%",
          "resultGroups": [
            {
              "groupingId": "AnlsGrouping_26_Trt01An",
              "groupId": "AnlsGrouping_26_Trt01An_01"
            },
            {
              "groupingId": "AnlsGrouping_28_Aebodsys",
              "groupValue": "SKIN AND SUBCUTANEOUS TISSUE DISORDERS"
            },
            {
              "groupingId": "AnlsGrouping_29_Aedecod",
              "groupValue": "RASH PRURITIC"
            }
          ],
          "rawValue": "1.1904761905",
          "formattedValue": "(1.2)"
        },
        {
          "operationId": "Mth_03_02_%",
          "resultGroups": [
            {
              "groupingId": "AnlsGrouping_26_Trt01An",
              "groupId": "AnlsGrouping_26_Trt01An_01"
            },
            {
              "groupingId": "AnlsGrouping_28_Aebodsys",
              "groupValue": "SKIN AND SUBCUTANEOUS TISSUE DISORDERS"
            },
            {
              "groupingId": "AnlsGrouping_29_Aedecod",
              "groupValue": "SKIN EXFOLIATION"
            }
          ],
          "rawValue": "1.1904761905",
          "formattedValue": "(1.2)"
        },
        {
          "operationId": "Mth_03_02_%",
          "resultGroups": [
            {
              "groupingId": "AnlsGrouping_26_Trt01An",
              "groupId": "AnlsGrouping_26_Trt01An_01"
            },
            {
              "groupingId": "AnlsGrouping_28_Aebodsys",
              "groupValue": "SKIN AND SUBCUTANEOUS TISSUE DISORDERS"
            },
            {
              "groupingId": "AnlsGrouping_29_Aedecod",
              "groupValue": "URTICARIA"
            }
          ],
          "rawValue": "1.1904761905",
          "formattedValue": "(1.2)"
        },
        {
          "operationId": "Mth_03_02_%",
          "resultGroups": [
            {
              "groupingId": "AnlsGrouping_26_Trt01An",
              "groupId": "AnlsGrouping_26_Trt01An_01"
            },
            {
              "groupingId": "AnlsGrouping_28_Aebodsys",
              "groupValue": "VASCULAR DISORDERS"
            },
            {
              "groupingId": "AnlsGrouping_29_Aedecod",
              "groupValue": "HYPERTENSION"
            }
          ],
          "rawValue": "1.1904761905",
          "formattedValue": "(1.2)"
        },
        {
          "operationId": "Mth_03_02_%",
          "resultGroups": [
            {
              "groupingId": "AnlsGrouping_26_Trt01An",
              "groupId": "AnlsGrouping_26_Trt01An_01"
            },
            {
              "groupingId": "AnlsGrouping_28_Aebodsys",
              "groupValue": "VASCULAR DISORDERS"
            },
            {
              "groupingId": "AnlsGrouping_29_Aedecod",
              "groupValue": "HYPOTENSION"
            }
          ],
          "rawValue": "1.1904761905",
          "formattedValue": "(1.2)"
        },
        {
          "operationId": "Mth_03_02_%",
          "resultGroups": [
            {
              "groupingId": "AnlsGrouping_26_Trt01An",
              "groupId": "AnlsGrouping_26_Trt01An_01"
            },
            {
              "groupingId": "AnlsGrouping_28_Aebodsys",
              "groupValue": "CARDIAC DISORDERS"
            },
            {
              "groupingId": "AnlsGrouping_29_Aedecod",
              "groupValue": "MYOCARDIAL INFARCTION"
            }
          ],
          "rawValue": "2.380952381",
          "formattedValue": "(2.4)"
        },
        {
          "operationId": "Mth_03_02_%",
          "resultGroups": [
            {
              "groupingId": "AnlsGrouping_26_Trt01An",
              "groupId": "AnlsGrouping_26_Trt01An_01"
            },
            {
              "groupingId": "AnlsGrouping_28_Aebodsys",
              "groupValue": "CARDIAC DISORDERS"
            },
            {
              "groupingId": "AnlsGrouping_29_Aedecod",
              "groupValue": "PALPITATIONS"
            }
          ],
          "rawValue": "2.380952381",
          "formattedValue": "(2.4)"
        },
        {
          "operationId": "Mth_03_02_%",
          "resultGroups": [
            {
              "groupingId": "AnlsGrouping_26_Trt01An",
              "groupId": "AnlsGrouping_26_Trt01An_01"
            },
            {
              "groupingId": "AnlsGrouping_28_Aebodsys",
              "groupValue": "CARDIAC DISORDERS"
            },
            {
              "groupingId": "AnlsGrouping_29_Aedecod",
              "groupValue": "VENTRICULAR EXTRASYSTOLES"
            }
          ],
          "rawValue": "2.380952381",
          "formattedValue": "(2.4)"
        },
        {
          "operationId": "Mth_03_02_%",
          "resultGroups": [
            {
              "groupingId": "AnlsGrouping_26_Trt01An",
              "groupId": "AnlsGrouping_26_Trt01An_01"
            },
            {
              "groupingId": "AnlsGrouping_28_Aebodsys",
              "groupValue": "GENERAL DISORDERS AND ADMINISTRATION SITE CONDITIONS"
            },
            {
              "groupingId": "AnlsGrouping_29_Aedecod",
              "groupValue": "APPLICATION SITE URTICARIA"
            }
          ],
          "rawValue": "2.380952381",
          "formattedValue": "(2.4)"
        },
        {
          "operationId": "Mth_03_02_%",
          "resultGroups": [
            {
              "groupingId": "AnlsGrouping_26_Trt01An",
              "groupId": "AnlsGrouping_26_Trt01An_01"
            },
            {
              "groupingId": "AnlsGrouping_28_Aebodsys",
              "groupValue": "GENERAL DISORDERS AND ADMINISTRATION SITE CONDITIONS"
            },
            {
              "groupingId": "AnlsGrouping_29_Aedecod",
              "groupValue": "OEDEMA"
            }
          ],
          "rawValue": "2.380952381",
          "formattedValue": "(2.4)"
        },
        {
          "operationId": "Mth_03_02_%",
          "resultGroups": [
            {
              "groupingId": "AnlsGrouping_26_Trt01An",
              "groupId": "AnlsGrouping_26_Trt01An_01"
            },
            {
              "groupingId": "AnlsGrouping_28_Aebodsys",
              "groupValue": "INJURY, POISONING AND PROCEDURAL COMPLICATIONS"
            },
            {
              "groupingId": "AnlsGrouping_29_Aedecod",
              "groupValue": "FALL"
            }
          ],
          "rawValue": "2.380952381",
          "formattedValue": "(2.4)"
        },
        {
          "operationId": "Mth_03_02_%",
          "resultGroups": [
            {
              "groupingId": "AnlsGrouping_26_Trt01An",
              "groupId": "AnlsGrouping_26_Trt01An_01"
            },
            {
              "groupingId": "AnlsGrouping_28_Aebodsys",
              "groupValue": "INJURY, POISONING AND PROCEDURAL COMPLICATIONS"
            },
            {
              "groupingId": "AnlsGrouping_29_Aedecod",
              "groupValue": "SKIN LACERATION"
            }
          ],
          "rawValue": "2.380952381",
          "formattedValue": "(2.4)"
        },
        {
          "operationId": "Mth_03_02_%",
          "resultGroups": [
            {
              "groupingId": "AnlsGrouping_26_Trt01An",
              "groupId": "AnlsGrouping_26_Trt01An_01"
            },
            {
              "groupingId": "AnlsGrouping_28_Aebodsys",
              "groupValue": "MUSCULOSKELETAL AND CONNECTIVE TISSUE DISORDERS"
            },
            {
              "groupingId": "AnlsGrouping_29_Aedecod",
              "groupValue": "SHOULDER PAIN"
            }
          ],
          "rawValue": "2.380952381",
          "formattedValue": "(2.4)"
        },
        {
          "operationId": "Mth_03_02_%",
          "resultGroups": [
            {
              "groupingId": "AnlsGrouping_26_Trt01An",
              "groupId": "AnlsGrouping_26_Trt01An_01"
            },
            {
              "groupingId": "AnlsGrouping_28_Aebodsys",
              "groupValue": "NERVOUS SYSTEM DISORDERS"
            },
            {
              "groupingId": "AnlsGrouping_29_Aedecod",
              "groupValue": "TRANSIENT ISCHAEMIC ATTACK"
            }
          ],
          "rawValue": "2.380952381",
          "formattedValue": "(2.4)"
        },
        {
          "operationId": "Mth_03_02_%",
          "resultGroups": [
            {
              "groupingId": "AnlsGrouping_26_Trt01An",
              "groupId": "AnlsGrouping_26_Trt01An_01"
            },
            {
              "groupingId": "AnlsGrouping_28_Aebodsys",
              "groupValue": "GASTROINTESTINAL DISORDERS"
            },
            {
              "groupingId": "AnlsGrouping_29_Aedecod",
              "groupValue": "NAUSEA"
            }
          ],
          "rawValue": "3.5714285714",
          "formattedValue": "(3.6)"
        },
        {
          "operationId": "Mth_03_02_%",
          "resultGroups": [
            {
              "groupingId": "AnlsGrouping_26_Trt01An",
              "groupId": "AnlsGrouping_26_Trt01An_01"
            },
            {
              "groupingId": "AnlsGrouping_28_Aebodsys",
              "groupValue": "GASTROINTESTINAL DISORDERS"
            },
            {
              "groupingId": "AnlsGrouping_29_Aedecod",
              "groupValue": "VOMITING"
            }
          ],
          "rawValue": "3.5714285714",
          "formattedValue": "(3.6)"
        },
        {
          "operationId": "Mth_03_02_%",
          "resultGroups": [
            {
              "groupingId": "AnlsGrouping_26_Trt01An",
              "groupId": "AnlsGrouping_26_Trt01An_01"
            },
            {
              "groupingId": "AnlsGrouping_28_Aebodsys",
              "groupValue": "NERVOUS SYSTEM DISORDERS"
            },
            {
              "groupingId": "AnlsGrouping_29_Aedecod",
              "groupValue": "HEADACHE"
            }
          ],
          "rawValue": "3.5714285714",
          "formattedValue": "(3.6)"
        },
        {
          "operationId": "Mth_03_02_%",
          "resultGroups": [
            {
              "groupingId": "AnlsGrouping_26_Trt01An",
              "groupId": "AnlsGrouping_26_Trt01An_01"
            },
            {
              "groupingId": "AnlsGrouping_28_Aebodsys",
              "groupValue": "NERVOUS SYSTEM DISORDERS"
            },
            {
              "groupingId": "AnlsGrouping_29_Aedecod",
              "groupValue": "SOMNOLENCE"
            }
          ],
          "rawValue": "3.5714285714",
          "formattedValue": "(3.6)"
        },
        {
          "operationId": "Mth_03_02_%",
          "resultGroups": [
            {
              "groupingId": "AnlsGrouping_26_Trt01An",
              "groupId": "AnlsGrouping_26_Trt01An_01"
            },
            {
              "groupingId": "AnlsGrouping_28_Aebodsys",
              "groupValue": "PSYCHIATRIC DISORDERS"
            },
            {
              "groupingId": "AnlsGrouping_29_Aedecod",
              "groupValue": "ANXIETY"
            }
          ],
          "rawValue": "3.5714285714",
          "formattedValue": "(3.6)"
        },
        {
          "operationId": "Mth_03_02_%",
          "resultGroups": [
            {
              "groupingId": "AnlsGrouping_26_Trt01An",
              "groupId": "AnlsGrouping_26_Trt01An_01"
            },
            {
              "groupingId": "AnlsGrouping_28_Aebodsys",
              "groupValue": "PSYCHIATRIC DISORDERS"
            },
            {
              "groupingId": "AnlsGrouping_29_Aedecod",
              "groupValue": "CONFUSIONAL STATE"
            }
          ],
          "rawValue": "3.5714285714",
          "formattedValue": "(3.6)"
        },
        {
          "operationId": "Mth_03_02_%",
          "resultGroups": [
            {
              "groupingId": "AnlsGrouping_26_Trt01An",
              "groupId": "AnlsGrouping_26_Trt01An_01"
            },
            {
              "groupingId": "AnlsGrouping_28_Aebodsys",
              "groupValue": "GASTROINTESTINAL DISORDERS"
            },
            {
              "groupingId": "AnlsGrouping_29_Aedecod",
              "groupValue": "DIARRHOEA"
            }
          ],
          "rawValue": "4.7619047619",
          "formattedValue": "(4.8)"
        },
        {
          "operationId": "Mth_03_02_%",
          "resultGroups": [
            {
              "groupingId": "AnlsGrouping_26_Trt01An",
              "groupId": "AnlsGrouping_26_Trt01An_01"
            },
            {
              "groupingId": "AnlsGrouping_28_Aebodsys",
              "groupValue": "GENERAL DISORDERS AND ADMINISTRATION SITE CONDITIONS"
            },
            {
              "groupingId": "AnlsGrouping_29_Aedecod",
              "groupValue": "APPLICATION SITE VESICLES"
            }
          ],
          "rawValue": "4.7619047619",
          "formattedValue": "(4.8)"
        },
        {
          "operationId": "Mth_03_02_%",
          "resultGroups": [
            {
              "groupingId": "AnlsGrouping_26_Trt01An",
              "groupId": "AnlsGrouping_26_Trt01An_01"
            },
            {
              "groupingId": "AnlsGrouping_28_Aebodsys",
              "groupValue": "INFECTIONS AND INFESTATIONS"
            },
            {
              "groupingId": "AnlsGrouping_29_Aedecod",
              "groupValue": "NASOPHARYNGITIS"
            }
          ],
          "rawValue": "4.7619047619",
          "formattedValue": "(4.8)"
        },
        {
          "operationId": "Mth_03_02_%",
          "resultGroups": [
            {
              "groupingId": "AnlsGrouping_26_Trt01An",
              "groupId": "AnlsGrouping_26_Trt01An_01"
            },
            {
              "groupingId": "AnlsGrouping_28_Aebodsys",
              "groupValue": "NERVOUS SYSTEM DISORDERS"
            },
            {
              "groupingId": "AnlsGrouping_29_Aedecod",
              "groupValue": "SYNCOPE"
            }
          ],
          "rawValue": "4.7619047619",
          "formattedValue": "(4.8)"
        },
        {
          "operationId": "Mth_03_02_%",
          "resultGroups": [
            {
              "groupingId": "AnlsGrouping_26_Trt01An",
              "groupId": "AnlsGrouping_26_Trt01An_01"
            },
            {
              "groupingId": "AnlsGrouping_28_Aebodsys",
              "groupValue": "SKIN AND SUBCUTANEOUS TISSUE DISORDERS"
            },
            {
              "groupingId": "AnlsGrouping_29_Aedecod",
              "groupValue": "HYPERHIDROSIS"
            }
          ],
          "rawValue": "4.7619047619",
          "formattedValue": "(4.8)"
        },
        {
          "operationId": "Mth_03_02_%",
          "resultGroups": [
            {
              "groupingId": "AnlsGrouping_26_Trt01An",
              "groupId": "AnlsGrouping_26_Trt01An_01"
            },
            {
              "groupingId": "AnlsGrouping_28_Aebodsys",
              "groupValue": "GENERAL DISORDERS AND ADMINISTRATION SITE CONDITIONS"
            },
            {
              "groupingId": "AnlsGrouping_29_Aedecod",
              "groupValue": "FATIGUE"
            }
          ],
          "rawValue": "5.9523809524",
          "formattedValue": "(6.0)"
        },
        {
          "operationId": "Mth_03_02_%",
          "resultGroups": [
            {
              "groupingId": "AnlsGrouping_26_Trt01An",
              "groupId": "AnlsGrouping_26_Trt01An_01"
            },
            {
              "groupingId": "AnlsGrouping_28_Aebodsys",
              "groupValue": "SKIN AND SUBCUTANEOUS TISSUE DISORDERS"
            },
            {
              "groupingId": "AnlsGrouping_29_Aedecod",
              "groupValue": "SKIN IRRITATION"
            }
          ],
          "rawValue": "7.1428571429",
          "formattedValue": "(7.1)"
        },
        {
          "operationId": "Mth_03_02_%",
          "resultGroups": [
            {
              "groupingId": "AnlsGrouping_26_Trt01An",
              "groupId": "AnlsGrouping_26_Trt01An_01"
            },
            {
              "groupingId": "AnlsGrouping_28_Aebodsys",
              "groupValue": "CARDIAC DISORDERS"
            },
            {
              "groupingId": "AnlsGrouping_29_Aedecod",
              "groupValue": "SINUS BRADYCARDIA"
            }
          ],
          "rawValue": "8.3333333333",
          "formattedValue": "(8.3)"
        },
        {
          "operationId": "Mth_03_02_%",
          "resultGroups": [
            {
              "groupingId": "AnlsGrouping_26_Trt01An",
              "groupId": "AnlsGrouping_26_Trt01An_01"
            },
            {
              "groupingId": "AnlsGrouping_28_Aebodsys",
              "groupValue": "NERVOUS SYSTEM DISORDERS"
            },
            {
              "groupingId": "AnlsGrouping_29_Aedecod",
              "groupValue": "DIZZINESS"
            }
          ],
          "rawValue": "9.5238095238",
          "formattedValue": "(9.5)"
        },
        {
          "operationId": "Mth_03_02_%",
          "resultGroups": [
            {
              "groupingId": "AnlsGrouping_26_Trt01An",
              "groupId": "AnlsGrouping_26_Trt01An_01"
            },
            {
              "groupingId": "AnlsGrouping_28_Aebodsys",
              "groupValue": "GENERAL DISORDERS AND ADMINISTRATION SITE CONDITIONS"
            },
            {
