{
  "name": "Subject Disposition",
  "id": "FDA-DS-T04",
  "mainListOfContents": {
    "name": "List of Planned Analyses",
    "label": "LOPA",
    "contentsList": {
      "listItems": [
        {
          "name": "Subject Disposition",
          "level": 1,
          "order": 1,
          "outputId": "Out_02",
          "sublist": {
            "listItems": [
              {
                "name": "    Summary of Subjects by Treatment",
                "level": 2,
                "order": 1,
                "analysisId": "An_12"
              },
              {
                "name": "    Subjects randomized",
                "level": 2,
                "order": 2,
                "sublist": {
                  "listItems": [
                    {
                      "name": "        Summary of Subjects by Treatment and Subjects randomized",
                      "level": 3,
                      "order": 1,
                      "analysisId": "An_13"
                    }
                  ]
                }
              },
              {
                "name": "         ITT population [3]",
                "level": 2,
                "order": 3,
                "sublist": {
                  "listItems": [
                    {
                      "name": "        Summary of Subjects by Treatment and      ITT population [3]",
                      "level": 3,
                      "order": 1,
                      "analysisId": "An_15"
                    }
                  ]
                }
              },
              {
                "name": "         Safety population [4]",
                "level": 2,
                "order": 4,
                "sublist": {
                  "listItems": [
                    {
                      "name": "        Summary of Subjects by Treatment and      Safety population [4]",
                      "level": 3,
                      "order": 1,
                      "analysisId": "An_17"
                    }
                  ]
                }
              },
              {
                "name": "         Per-protocol population [5]",
                "level": 2,
                "order": 5,
                "sublist": {
                  "listItems": [
                    {
                      "name": "        Summary of Subjects by Treatment and      Per-protocol population [5]",
                      "level": 3,
                      "order": 1,
                      "analysisId": "An_19"
                    }
                  ]
                }
              },
              {
                "name": "    Discontinued study drug [6]",
                "level": 2,
                "order": 6,
                "sublist": {
                  "listItems": [
                    {
                      "name": "        Summary of subjects who discontinued study drug by Treatment",
                      "level": 3,
                      "order": 1,
                      "analysisId": "An_21"
                    },
                    {
                      "name": "        Comparison of subjects who discontinued study drug, Xanomeline Low Dose vs Placebo",
                      "level": 3,
                      "order": 2,
                      "analysisId": "An_22"
                    },
                    {
                      "name": "        Comparison of subjects who discontinued study drug, Xanomeline High Dose vs Placebo",
                      "level": 3,
                      "order": 3,
                      "analysisId": "An_22_1",
                      "sublist": {
                        "listItems": [
                          {
                            "name": "            Summary of subjects who discontinued study drug by Treatment and Reason for Discontinuation of Treatment",
                            "level": 4,
                            "order": 1,
                            "analysisId": "An_21_1"
                          },
                          {
                            "name": "            Comparison of subjects who discontinued study drug by Reason for Discontinuation of Treatment, Xanomeline Low Dose vs Placebo",
                            "level": 4,
                            "order": 2,
                            "analysisId": "An_22_2"
                          },
                          {
                            "name": "            Comparison of subjects who discontinued study drug by Reason for Discontinuation of Treatment, Xanomeline High Dose vs Placebo",
                            "level": 4,
                            "order": 3,
                            "analysisId": "An_22_3"
                          }
                        ]
                      }
                    }
                  ]
                }
              },
              {
                "name": "    Discontinued study [6]",
                "level": 2,
                "order": 7,
                "sublist": {
                  "listItems": [
                    {
                      "name": "        Summary of subjects who discontinued study by Treatment",
                      "level": 3,
                      "order": 1,
                      "analysisId": "An_23"
                    },
                    {
                      "name": "        Comparison of subjects who discontinued study, Xanomeline Low Dose vs Placebo",
                      "level": 3,
                      "order": 2,
                      "analysisId": "An_24"
                    },
                    {
                      "name": "        Comparison of subjects who discontinued study, Xanomeline High Dose vs Placebo",
                      "level": 3,
                      "order": 3,
                      "analysisId": "An_24_1",
                      "sublist": {
                        "listItems": [
                          {
                            "name": "            Summary of subjects who discontinued study by Treatment and Reason for Discontinuation from Study",
                            "level": 4,
                            "order": 1,
                            "analysisId": "An_23_1"
                          },
                          {
                            "name": "            Comparison of subjects who discontinued study by Reason for Discontinuation from Study, Xanomeline Low Dose vs Placebo",
                            "level": 4,
                            "order": 2,
                            "analysisId": "An_24_2"
                          },
                          {
                            "name": "            Comparison of subjects who discontinued study by Reason for Discontinuation from Study, Xanomeline High Dose vs Placebo",
                            "level": 4,
                            "order": 3,
                            "analysisId": "An_24_3"
                          }
                        ]
                      }
                    }
                  ]
                }
              }
            ]
          }
        }
      ]
    }
  },
  "version": 1,
  "otherListsOfContents": [
    {
      "name": "List of Planned Outputs",
      "label": "LOPO",
      "contentsList": {
        "listItems": [
          {
            "name": "Subject Disposition",
            "level": 1,
            "order": 1,
            "outputId": "Out_02"
          }
        ]
      }
    }
  ],
  "terminologyExtensions": [
    {
      "id": "TermEx01",
      "sponsorTerms": [
        {
          "id": "TermEx01_01",
          "submissionValue": "POPULATION SUMMARY",
          "description": "Summary statistics describing the study population(s)."
        }
      ],
      "enumeration": "AnalysisPurposeEnum"
    }
  ],
  "analysisOutputCategorizations": [
    {
      "id": "ANSET",
      "categories": [
        {
          "id": "ANSET_01",
          "label": "Safety",
          "subCategorizations": [
            {
              "id": "ANSET_01_ANINT",
              "categories": [
                {
                  "id": "ANSET_01_ANINT_02",
                  "label": "Disposition"
                }
              ],
              "label": "Safety Analysis Of Interest"
            }
          ]
        }
      ],
      "label": "Analysis Sets"
    }
  ],
  "analysisSets": [
    {
      "name": "All Subjects",
      "id": "AnalysisSet_03",
      "level": 1,
      "order": 1,
      "condition": {
        "dataset": "ADSL",
        "variable": "ARM",
        "comparator": "NE"
      }
    },
    {
      "name": "Subjects randomized",
      "label": "Subjects randomized",
      "id": "AnalysisSet_04",
      "level": 1,
      "order": 1,
      "condition": {
        "dataset": "ADSL",
        "variable": "RANDFL",
        "comparator": "EQ",
        "value": [
          "Y"
        ]
      }
    },
    {
      "name": "     ITT population [3]",
      "label": "     ITT population [3]",
      "id": "AnalysisSet_05",
      "level": 1,
      "order": 1,
      "condition": {
        "dataset": "ADSL",
        "variable": "ITTFL",
        "comparator": "EQ",
        "value": [
          "Y"
        ]
      }
    },
    {
      "name": "     Safety population [4]",
      "label": "     Safety population [4]",
      "id": "AnalysisSet_06",
      "level": 1,
      "order": 1,
      "condition": {
        "dataset": "ADSL",
        "variable": "SAFFL",
        "comparator": "EQ",
        "value": [
          "Y"
        ]
      }
    },
    {
      "name": "     Per-protocol population [5]",
      "label": "     Per-protocol population [5]",
      "id": "AnalysisSet_07",
      "level": 1,
      "order": 1,
      "condition": {
        "dataset": "ADSL",
        "variable": "PPROTFL",
        "comparator": "EQ",
        "value": [
          "Y"
        ]
      }
    }
  ],
  "dataSubsets": [
    {
      "name": "Discontinued study drug",
      "id": "Dss_38",
      "level": 1,
      "order": 1,
      "compoundExpression": {
        "logicalOperator": "OR",
        "whereClauses": [
          {
            "level": 2,
            "order": 1,
            "condition": {
              "dataset": "ADSL",
              "variable": "DCTREAS",
              "comparator": "NE"
            }
          },
          {
            "level": 2,
            "order": 2,
            "condition": {
              "dataset": "ADSL",
              "variable": "DISCONFL",
              "comparator": "EQ",
              "value": [
                "Y"
              ]
            }
          }
        ]
      }
    },
    {
      "name": "Discontinued study drug, Xanomeline Low Dose or Placebo",
      "id": "Dss_39",
      "level": 1,
      "order": 1,
      "compoundExpression": {
        "logicalOperator": "AND",
        "whereClauses": [
          {
            "level": 2,
            "order": 1,
            "compoundExpression": {
              "logicalOperator": "OR",
              "whereClauses": [
                {
                  "level": 3,
                  "order": 1,
                  "condition": {
                    "dataset": "ADSL",
                    "variable": "DCTREAS",
                    "comparator": "NE"
                  }
                },
                {
                  "level": 3,
                  "order": 2,
                  "condition": {
                    "dataset": "ADSL",
                    "variable": "DISCONFL",
                    "comparator": "EQ",
                    "value": [
                      "Y"
                    ]
                  }
                }
              ]
            }
          },
          {
            "level": 2,
            "order": 1,
            "condition": {
              "dataset": "ADSL",
              "variable": "TRT01AN",
              "comparator": "IN",
              "value": [
                "1",
                "3"
              ]
            }
          }
        ]
      }
    },
    {
      "name": "Discontinued study drug, Xanomeline High Dose or Placebo",
      "id": "Dss_40",
      "level": 1,
      "order": 1,
      "compoundExpression": {
        "logicalOperator": "AND",
        "whereClauses": [
          {
            "level": 2,
            "order": 1,
            "compoundExpression": {
              "logicalOperator": "OR",
              "whereClauses": [
                {
                  "level": 3,
                  "order": 1,
                  "condition": {
                    "dataset": "ADSL",
                    "variable": "DCTREAS",
                    "comparator": "NE"
                  }
                },
                {
                  "level": 3,
                  "order": 2,
                  "condition": {
                    "dataset": "ADSL",
                    "variable": "DISCONFL",
                    "comparator": "EQ",
                    "value": [
                      "Y"
                    ]
                  }
                }
              ]
            }
          },
          {
            "level": 2,
            "order": 1,
            "condition": {
              "dataset": "ADSL",
              "variable": "TRT01AN",
              "comparator": "IN",
              "value": [
                "2",
                "3"
              ]
            }
          }
        ]
      }
    },
    {
      "name": "Discontinued study",
      "id": "Dss_41",
      "level": 1,
      "order": 1,
      "compoundExpression": {
        "logicalOperator": "OR",
        "whereClauses": [
          {
            "level": 2,
            "order": 1,
            "condition": {
              "dataset": "ADSL",
              "variable": "DCTREAS",
              "comparator": "NE"
            }
          },
          {
            "level": 2,
            "order": 2,
            "condition": {
              "dataset": "ADSL",
              "variable": "DISCONFL",
              "comparator": "EQ",
              "value": [
                "Y"
              ]
            }
          }
        ]
      }
    },
    {
      "name": "Discontinued study, Xanomeline Low Dose or Placebo",
      "id": "Dss_42",
      "level": 1,
      "order": 1,
      "compoundExpression": {
        "logicalOperator": "AND",
        "whereClauses": [
          {
            "level": 2,
            "order": 1,
            "compoundExpression": {
              "logicalOperator": "OR",
              "whereClauses": [
                {
                  "level": 3,
                  "order": 1,
                  "condition": {
                    "dataset": "ADSL",
                    "variable": "DCSREAS",
                    "comparator": "NE"
                  }
                },
                {
                  "level": 3,
                  "order": 2,
                  "condition": {
                    "dataset": "ADSL",
                    "variable": "DISCONFL",
                    "comparator": "EQ",
                    "value": [
                      "Y"
                    ]
                  }
                }
              ]
            }
          },
          {
            "level": 2,
            "order": 1,
            "condition": {
              "dataset": "ADSL",
              "variable": "TRT01AN",
              "comparator": "IN",
              "value": [
                "1",
                "3"
              ]
            }
          }
        ]
      }
    },
    {
      "name": "Discontinued study, Xanomeline High Dose or Placebo",
      "id": "Dss_43",
      "level": 1,
      "order": 1,
      "compoundExpression": {
        "logicalOperator": "AND",
        "whereClauses": [
          {
            "level": 2,
            "order": 1,
            "compoundExpression": {
              "logicalOperator": "OR",
              "whereClauses": [
                {
                  "level": 3,
                  "order": 1,
                  "condition": {
                    "dataset": "ADSL",
                    "variable": "DCSREAS",
                    "comparator": "NE"
                  }
                },
                {
                  "level": 3,
                  "order": 2,
                  "condition": {
                    "dataset": "ADSL",
                    "variable": "DISCONFL",
                    "comparator": "EQ",
                    "value": [
                      "Y"
                    ]
                  }
                }
              ]
            }
          },
          {
            "level": 2,
            "order": 1,
            "condition": {
              "dataset": "ADSL",
              "variable": "TRT01AN",
              "comparator": "IN",
              "value": [
                "2",
                "3"
              ]
            }
          }
        ]
      }
    }
  ],
  "analysisGroupings": [
    {
      "name": "Treatment",
      "id": "AnlsGrouping_07_Trt01An",
      "dataDriven": false,
      "groupingDataset": "ADSL",
      "groupingVariable": "TRT01AN",
      "groups": [
        {
          "name": "Xanomeline Low Dose \n(N=XX)\nn (%)",
          "id": "AnlsGrouping_07_Trt01An_01",
          "level": 1,
          "order": 1,
          "condition": {
            "dataset": "ADSL",
            "variable": "TRT01AN",
            "comparator": "EQ",
            "value": [
              "1"
            ]
          }
        },
        {
          "name": "Xanomeline High Dose \n(N=XX)\nn (%)",
          "id": "AnlsGrouping_07_Trt01An_02",
          "level": 1,
          "order": 2,
          "condition": {
            "dataset": "ADSL",
            "variable": "TRT01AN",
            "comparator": "EQ",
            "value": [
              "2"
            ]
          }
        },
        {
          "name": "Placebo \n(N=XX)\nn (%)",
          "id": "AnlsGrouping_07_Trt01An_03",
          "level": 1,
          "order": 3,
          "condition": {
            "dataset": "ADSL",
            "variable": "TRT01AN",
            "comparator": "EQ",
            "value": [
              "3"
            ]
          }
        }
      ]
    },
    {
      "name": "Reason for Discontinuation of Treatment",
      "label": "Discontinued study drug [6]",
      "id": "AnlsGrouping_12_Dctreas",
      "dataDriven": false,
      "groupingDataset": "ADSL",
      "groupingVariable": "DCTREAS",
      "groups": [
        {
          "name": "Adverse Event",
          "label": "Adverse Event",
          "id": "AnlsGrouping_12_Dctreas_01",
          "level": 1,
          "order": 1,
          "condition": {
            "dataset": "ADSL",
            "variable": "DCTREAS",
            "comparator": "EQ",
            "value": [
              "Adverse Event"
            ]
          }
        },
        {
          "name": "Lack of Efficacy",
          "label": "Lack of Efficacy",
          "id": "AnlsGrouping_12_Dctreas_02",
          "level": 1,
          "order": 2,
          "condition": {
            "dataset": "ADSL",
            "variable": "DCTREAS",
            "comparator": "EQ",
            "value": [
              "Lack of Efficacy"
            ]
          }
        },
        {
          "name": "Protocol Deviation",
          "label": "Protocol Deviation",
          "id": "AnlsGrouping_12_Dctreas_03",
          "level": 1,
          "order": 3,
          "condition": {
            "dataset": "ADSL",
            "variable": "DCTREAS",
            "comparator": "EQ",
            "value": [
              "Protocol Deviation"
            ]
          }
        },
        {
          "name": "Death",
          "label": "Death",
          "id": "AnlsGrouping_12_Dctreas_04",
          "level": 1,
          "order": 4,
          "condition": {
            "dataset": "ADSL",
            "variable": "DCTREAS",
            "comparator": "EQ",
            "value": [
              "Death"
            ]
          }
        },
        {
          "name": "Withdrawal by Subject",
          "label": "Withdrawal by Subject",
          "id": "AnlsGrouping_12_Dctreas_05",
          "level": 1,
          "order": 5,
          "condition": {
            "dataset": "ADSL",
            "variable": "DCTREAS",
            "comparator": "EQ",
            "value": [
              "Withdrawal by Subject"
            ]
          }
        },
        {
          "name": "Other",
          "label": "Other",
          "id": "AnlsGrouping_12_Dctreas_06",
          "level": 1,
          "order": 6,
          "condition": {
            "dataset": "ADSL",
            "variable": "DCTREAS",
            "comparator": "EQ",
            "value": [
              "Other"
            ]
          }
        }
      ]
    },
    {
      "name": "Reason for Discontinuation from Study",
      "label": "Discontinued study [6]",
      "id": "AnlsGrouping_13_Dcsreas",
      "dataDriven": false,
      "groupingDataset": "ADSL",
      "groupingVariable": "DCSREAS",
      "groups": [
        {
          "name": "Adverse Event",
          "label": "Adverse Event",
          "id": "AnlsGrouping_13_Dcsreas_01",
          "level": 1,
          "order": 1,
          "condition": {
            "dataset": "ADSL",
            "variable": "DCSREAS",
            "comparator": "EQ",
            "value": [
              "Adverse Event"
            ]
          }
        },
        {
          "name": "Death",
          "label": "Death",
          "id": "AnlsGrouping_13_Dcsreas_02",
          "level": 1,
          "order": 2,
          "condition": {
            "dataset": "ADSL",
            "variable": "DCSREAS",
            "comparator": "EQ",
            "value": [
              "Death"
            ]
          }
        },
        {
          "name": "Lost to Follow-up",
          "label": "Lost to Follow-up",
          "id": "AnlsGrouping_13_Dcsreas_03",
          "level": 1,
          "order": 3,
          "condition": {
            "dataset": "ADSL",
            "variable": "DCSREAS",
            "comparator": "EQ",
            "value": [
              "Lost to Follow-up"
            ]
          }
        },
        {
          "name": "Withdrawal by Subject",
          "label": "Withdrawal by Subject",
          "id": "AnlsGrouping_13_Dcsreas_04",
          "level": 1,
          "order": 4,
          "condition": {
            "dataset": "ADSL",
            "variable": "DCSREAS",
            "comparator": "EQ",
            "value": [
              "Withdrawal by Subject"
            ]
          }
        },
        {
          "name": "Physician Decision",
          "label": "Physician Decision",
          "id": "AnlsGrouping_13_Dcsreas_05",
          "level": 1,
          "order": 5,
          "condition": {
            "dataset": "ADSL",
            "variable": "DCSREAS",
            "comparator": "EQ",
            "value": [
              "Physician Decision"
            ]
          }
        },
        {
          "name": "Protocol Deviation",
          "label": "Protocol Deviation",
          "id": "AnlsGrouping_13_Dcsreas_06",
          "level": 1,
          "order": 6,
          "condition": {
            "dataset": "ADSL",
            "variable": "DCSREAS",
            "comparator": "EQ",
            "value": [
              "Protocol Deviation"
            ]
          }
        },
        {
          "name": "Other",
          "label": "Other",
          "id": "AnlsGrouping_13_Dcsreas_07",
          "level": 1,
          "order": 7,
          "condition": {
            "dataset": "ADSL",
            "variable": "DCSREAS",
            "comparator": "EQ",
            "value": [
              "Other"
            ]
          }
        }
      ]
    }
  ],
  "methods": [
    {
      "name": "bigN",
      "description": "Grouped summary of categorical variable",
      "label": "Descriptive summary statistics across groups for a categorical variable, based on subject occurrence",
      "id": "Mth_00_1",
      "operations": [
        {
          "name": "n",
          "label": "n",
          "id": "Mth_00_1_01_n",
          "order": 1,
          "resultPattern": "(N=XX)"
        }
      ]
    },
    {
      "name": "Summary by group of a categorical variable",
      "description": "Descriptive summary statistics across groups for a categorical variable, based on subject occurrence",
      "label": "Grouped summary of categorical variable",
      "id": "Mth_03",
      "operations": [
        {
          "name": "n",
          "label": "n",
          "id": "Mth_03_01_n",
          "order": 1,
          "resultPattern": "XX"
        },
        {
          "name": "%",
          "label": "%",
          "id": "Mth_03_02_%",
          "order": 2,
          "referencedOperationRelationships": [
            {
              "id": "Mth_03_pct_NUM",
              "referencedOperationRole": {
                "controlledTerm": "NUMERATOR"
              },
              "operationId": "Mth_03_01_n",
              "description": "The numerator for the calculation of the percentage."
            },
            {
              "id": "Mth_03_pct_DEN",
              "referencedOperationRole": {
                "controlledTerm": "DENOMINATOR"
              },
              "operationId": "Mth_00_1_01_n",
              "description": "The denominator for the calculation of the percentage."
            }
          ],
          "resultPattern": "(XX.X)"
        }
      ]
    },
    {
      "name": "Summary by group of a categorical variable",
      "description": "Descriptive summary statistics across groups for a categorical variable, based on subject occurrence",
      "label": "Grouped summary of categorical variable",
      "id": "Mth_03_1",
      "operations": [
        {
          "name": "Risk Difference %",
          "label": "Risk Difference %",
          "id": "Mth_03_1_01_Risk_Difference_%",
          "order": 1,
          "resultPattern": "XX.X"
        },
        {
          "name": "95% CI Low",
          "label": "95% CI Low",
          "id": "Mth_03_1_02_95%_CI_Low",
          "order": 2,
          "resultPattern": "XX.X"
        },
        {
          "name": "95% CI High",
          "label": "95% CI High",
          "id": "Mth_03_1_03_95%_CI_High",
          "order": 3,
          "resultPattern": "XX.X"
        }
      ]
    }
  ],
  "analyses": [
    {
      "name": "Summary of Subjects by Treatment",
      "id": "An_12",
      "reason": {
        "controlledTerm": "SPECIFIED IN SAP"
      },
      "purpose": {
        "sponsorTermId": "TermEx01_01"
      },
      "methodId": "Mth_00_1",
      "version": 1,
      "categoryIds": [
        "ANSET_01",
        "ANSET_01_ANINT_02"
      ],
      "dataset": "ADSL",
      "variable": "USUBJID",
      "analysisSetId": "AnalysisSet_03",
      "orderedGroupings": [
        {
          "order": 1,
          "groupingId": "AnlsGrouping_07_Trt01An",
          "resultsByGroup": true
        }
      ],
      "results": [
        {
          "operationId": "Mth_00_1_01_n",
          "resultGroups": [
            {
              "groupingId": "AnlsGrouping_07_Trt01An"
            }
          ],
          "rawValue": "84",
          "formattedValue": "(N=84)"
        },
        {
          "operationId": "Mth_00_1_01_n",
          "resultGroups": [
            {
              "groupingId": "AnlsGrouping_07_Trt01An"
            }
          ],
          "rawValue": "84",
          "formattedValue": "(N=84)"
        },
        {
          "operationId": "Mth_00_1_01_n",
          "resultGroups": [
            {
              "groupingId": "AnlsGrouping_07_Trt01An"
            }
          ],
          "rawValue": "86",
          "formattedValue": "(N=86)"
        }
      ]
    },
    {
      "name": "Summary of Subjects by Treatment and Subjects randomized",
      "id": "An_13",
      "reason": {
        "controlledTerm": "SPECIFIED IN SAP"
      },
      "purpose": {
        "sponsorTermId": "TermEx01_01"
      },
      "methodId": "Mth_03",
      "version": 1,
      "categoryIds": [
        "ANSET_01",
        "ANSET_01_ANINT_02"
      ],
      "dataset": "ADSL",
      "variable": "USUBJID",
      "analysisSetId": "AnalysisSet_04",
      "orderedGroupings": [
        {
          "order": 1,
          "groupingId": "AnlsGrouping_07_Trt01An",
          "resultsByGroup": true
        }
      ],
      "referencedAnalysisOperations": [
        {
          "referencedOperationRelationshipId": "Mth_03_pct_NUM",
          "analysisId": "An_13"
        },
        {
          "referencedOperationRelationshipId": "Mth_03_pct_DEN",
          "analysisId": "An_12"
        }
      ],
      "results": [
        {
          "operationId": "Mth_03_01_n",
          "resultGroups": [
            {
              "groupingId": "AnlsGrouping_07_Trt01An",
              "groupId": "AnlsGrouping_07_Trt01An_01"
            }
          ],
          "rawValue": "84",
          "formattedValue": "84"
        },
        {
          "operationId": "Mth_03_02_%",
          "resultGroups": [
            {
              "groupingId": "AnlsGrouping_07_Trt01An",
              "groupId": "AnlsGrouping_07_Trt01An_01"
            }
          ],
          "rawValue": "100",
          "formattedValue": "(100)"
        },
        {
          "operationId": "Mth_03_01_n",
          "resultGroups": [
            {
              "groupingId": "AnlsGrouping_07_Trt01An",
              "groupId": "AnlsGrouping_07_Trt01An_02"
            }
          ],
          "rawValue": "84",
          "formattedValue": "84"
        },
        {
          "operationId": "Mth_03_02_%",
          "resultGroups": [
            {
              "groupingId": "AnlsGrouping_07_Trt01An",
              "groupId": "AnlsGrouping_07_Trt01An_02"
            }
          ],
          "rawValue": "100",
          "formattedValue": "(100)"
        },
        {
          "operationId": "Mth_03_01_n",
          "resultGroups": [
            {
              "groupingId": "AnlsGrouping_07_Trt01An",
              "groupId": "AnlsGrouping_07_Trt01An_03"
            }
          ],
          "rawValue": "86",
          "formattedValue": "86"
        },
        {
          "operationId": "Mth_03_02_%",
          "resultGroups": [
            {
              "groupingId": "AnlsGrouping_07_Trt01An",
              "groupId": "AnlsGrouping_07_Trt01An_03"
            }
          ],
          "rawValue": "100",
          "formattedValue": "(100)"
        }
      ]
    },
    {
      "name": "Summary of Subjects by Treatment and      ITT population [3]",
      "id": "An_15",
      "reason": {
        "controlledTerm": "SPECIFIED IN SAP"
      },
      "purpose": {
        "sponsorTermId": "TermEx01_01"
      },
      "methodId": "Mth_03",
      "version": 1,
      "categoryIds": [
        "ANSET_01",
        "ANSET_01_ANINT_02"
      ],
      "dataset": "ADSL",
      "variable": "USUBJID",
      "analysisSetId": "AnalysisSet_05",
      "orderedGroupings": [
        {
          "order": 1,
          "groupingId": "AnlsGrouping_07_Trt01An",
          "resultsByGroup": true
        }
      ],
      "referencedAnalysisOperations": [
        {
          "referencedOperationRelationshipId": "Mth_03_pct_NUM",
          "analysisId": "An_15"
        },
        {
          "referencedOperationRelationshipId": "Mth_03_pct_DEN",
          "analysisId": "An_12"
        }
      ],
      "results": [
        {
          "operationId": "Mth_03_01_n",
          "resultGroups": [
            {
              "groupingId": "AnlsGrouping_07_Trt01An",
              "groupId": "AnlsGrouping_07_Trt01An_01"
            }
          ],
          "rawValue": "84",
          "formattedValue": "84"
        },
        {
          "operationId": "Mth_03_02_%",
          "resultGroups": [
            {
              "groupingId": "AnlsGrouping_07_Trt01An",
              "groupId": "AnlsGrouping_07_Trt01An_01"
            }
          ],
          "rawValue": "100",
          "formattedValue": "(100)"
        },
        {
          "operationId": "Mth_03_01_n",
          "resultGroups": [
            {
              "groupingId": "AnlsGrouping_07_Trt01An",
              "groupId": "AnlsGrouping_07_Trt01An_02"
            }
          ],
          "rawValue": "84",
          "formattedValue": "84"
        },
        {
          "operationId": "Mth_03_02_%",
          "resultGroups": [
            {
              "groupingId": "AnlsGrouping_07_Trt01An",
              "groupId": "AnlsGrouping_07_Trt01An_02"
            }
          ],
          "rawValue": "100",
          "formattedValue": "(100)"
        },
        {
          "operationId": "Mth_03_01_n",
          "resultGroups": [
            {
              "groupingId": "AnlsGrouping_07_Trt01An",
              "groupId": "AnlsGrouping_07_Trt01An_03"
            }
          ],
          "rawValue": "86",
          "formattedValue": "86"
        },
        {
          "operationId": "Mth_03_02_%",
          "resultGroups": [
            {
              "groupingId": "AnlsGrouping_07_Trt01An",
              "groupId": "AnlsGrouping_07_Trt01An_03"
            }
          ],
          "rawValue": "100",
          "formattedValue": "(100)"
        }
      ]
    },
    {
      "name": "Summary of Subjects by Treatment and      Safety population [4]",
      "id": "An_17",
      "reason": {
        "controlledTerm": "SPECIFIED IN SAP"
      },
      "purpose": {
        "sponsorTermId": "TermEx01_01"
      },
      "methodId": "Mth_03",
      "version": 1,
      "categoryIds": [
        "ANSET_01",
        "ANSET_01_ANINT_02"
      ],
      "dataset": "ADSL",
      "variable": "USUBJID",
      "analysisSetId": "AnalysisSet_06",
      "orderedGroupings": [
        {
          "order": 1,
          "groupingId": "AnlsGrouping_07_Trt01An",
          "resultsByGroup": true
        }
      ],
      "referencedAnalysisOperations": [
        {
          "referencedOperationRelationshipId": "Mth_03_pct_NUM",
          "analysisId": "An_17"
        },
        {
          "referencedOperationRelationshipId": "Mth_03_pct_DEN",
          "analysisId": "An_12"
        }
      ],
      "results": [
        {
          "operationId": "Mth_03_01_n",
          "resultGroups": [
            {
              "groupingId": "AnlsGrouping_07_Trt01An",
              "groupId": "AnlsGrouping_07_Trt01An_01"
            }
          ],
          "rawValue": "84",
          "formattedValue": "84"
        },
        {
          "operationId": "Mth_03_02_%",
          "resultGroups": [
            {
              "groupingId": "AnlsGrouping_07_Trt01An",
              "groupId": "AnlsGrouping_07_Trt01An_01"
            }
          ],
          "rawValue": "100",
          "formattedValue": "(100)"
        },
        {
          "operationId": "Mth_03_01_n",
          "resultGroups": [
            {
              "groupingId": "AnlsGrouping_07_Trt01An",
              "groupId": "AnlsGrouping_07_Trt01An_02"
            }
          ],
          "rawValue": "84",
          "formattedValue": "84"
        },
        {
          "operationId": "Mth_03_02_%",
          "resultGroups": [
            {
              "groupingId": "AnlsGrouping_07_Trt01An",
              "groupId": "AnlsGrouping_07_Trt01An_02"
            }
          ],
          "rawValue": "100",
          "formattedValue": "(100)"
        },
        {
          "operationId": "Mth_03_01_n",
          "resultGroups": [
            {
              "groupingId": "AnlsGrouping_07_Trt01An",
              "groupId": "AnlsGrouping_07_Trt01An_03"
            }
          ],
          "rawValue": "86",
          "formattedValue": "86"
        },
        {
          "operationId": "Mth_03_02_%",
          "resultGroups": [
            {
              "groupingId": "AnlsGrouping_07_Trt01An",
              "groupId": "AnlsGrouping_07_Trt01An_03"
            }
          ],
          "rawValue": "100",
          "formattedValue": "(100)"
        }
      ]
    },
    {
      "name": "Summary of Subjects by Treatment and      Per-protocol population [5]",
      "id": "An_19",
      "reason": {
        "controlledTerm": "SPECIFIED IN SAP"
      },
      "purpose": {
        "sponsorTermId": "TermEx01_01"
      },
      "methodId": "Mth_03",
      "version": 1,
      "categoryIds": [
        "ANSET_01",
        "ANSET_01_ANINT_02"
      ],
      "dataset": "ADSL",
      "variable": "USUBJID",
      "analysisSetId": "AnalysisSet_07",
      "orderedGroupings": [
        {
          "order": 1,
          "groupingId": "AnlsGrouping_07_Trt01An",
          "resultsByGroup": true
        }
      ],
      "referencedAnalysisOperations": [
        {
          "referencedOperationRelationshipId": "Mth_03_pct_NUM",
          "analysisId": "An_19"
        },
        {
          "referencedOperationRelationshipId": "Mth_03_pct_DEN",
          "analysisId": "An_12"
        }
      ],
      "results": [
        {
          "operationId": "Mth_03_01_n",
          "resultGroups": [
            {
              "groupingId": "AnlsGrouping_07_Trt01An",
              "groupId": "AnlsGrouping_07_Trt01An_01"
            }
          ],
          "rawValue": "81",
          "formattedValue": "81"
        },
        {
          "operationId": "Mth_03_02_%",
          "resultGroups": [
            {
              "groupingId": "AnlsGrouping_07_Trt01An",
              "groupId": "AnlsGrouping_07_Trt01An_01"
            }
          ],
          "rawValue": "96.428571429",
          "formattedValue": "(96.4)"
        },
        {
          "operationId": "Mth_03_01_n",
          "resultGroups": [
            {
              "groupingId": "AnlsGrouping_07_Trt01An",
              "groupId": "AnlsGrouping_07_Trt01An_02"
            }
          ],
          "rawValue": "74",
          "formattedValue": "74"
        },
        {
          "operationId": "Mth_03_02_%",
          "resultGroups": [
            {
              "groupingId": "AnlsGrouping_07_Trt01An",
              "groupId": "AnlsGrouping_07_Trt01An_02"
            }
          ],
          "rawValue": "88.095238095",
          "formattedValue": "(88.1)"
        },
        {
          "operationId": "Mth_03_01_n",
          "resultGroups": [
            {
              "groupingId": "AnlsGrouping_07_Trt01An",
              "groupId": "AnlsGrouping_07_Trt01An_03"
            }
          ],
          "rawValue": "79",
          "formattedValue": "79"
        },
        {
          "operationId": "Mth_03_02_%",
          "resultGroups": [
            {
              "groupingId": "AnlsGrouping_07_Trt01An",
              "groupId": "AnlsGrouping_07_Trt01An_03"
            }
          ],
          "rawValue": "91.860465116",
          "formattedValue": "(91.9)"
        }
      ]
    },
    {
      "name": "Summary of subjects who discontinued study drug by Treatment",
      "id": "An_21",
      "reason": {
        "controlledTerm": "SPECIFIED IN SAP"
      },
      "purpose": {
        "sponsorTermId": "TermEx01_01"
      },
      "methodId": "Mth_03",
      "version": 1,
      "categoryIds": [
        "ANSET_01",
        "ANSET_01_ANINT_02"
      ],
      "dataset": "ADSL",
      "variable": "USUBJID",
      "analysisSetId": "AnalysisSet_03",
      "dataSubsetId": "Dss_38",
      "orderedGroupings": [
        {
          "order": 1,
          "groupingId": "AnlsGrouping_07_Trt01An",
          "resultsByGroup": true
        }
      ],
      "referencedAnalysisOperations": [
        {
          "referencedOperationRelationshipId": "Mth_03_pct_NUM",
          "analysisId": "An_21"
        },
        {
          "referencedOperationRelationshipId": "Mth_03_pct_DEN",
          "analysisId": "An_12"
        }
      ],
      "results": [
        {
          "operationId": "Mth_03_01_n",
          "resultGroups": [
            {
              "groupingId": "AnlsGrouping_07_Trt01An",
              "groupId": "AnlsGrouping_07_Trt01An_01"
            }
          ],
          "rawValue": "59",
          "formattedValue": "59"
        },
        {
          "operationId": "Mth_03_02_%",
          "resultGroups": [
            {
              "groupingId": "AnlsGrouping_07_Trt01An",
              "groupId": "AnlsGrouping_07_Trt01An_01"
            }
          ],
          "rawValue": "70.238095238",
          "formattedValue": "(70.2)"
        },
        {
          "operationId": "Mth_03_01_n",
          "resultGroups": [
            {
              "groupingId": "AnlsGrouping_07_Trt01An",
              "groupId": "AnlsGrouping_07_Trt01An_02"
            }
          ],
          "rawValue": "57",
          "formattedValue": "57"
        },
        {
          "operationId": "Mth_03_02_%",
          "resultGroups": [
            {
              "groupingId": "AnlsGrouping_07_Trt01An",
              "groupId": "AnlsGrouping_07_Trt01An_02"
            }
          ],
          "rawValue": "67.857142857",
          "formattedValue": "(67.9)"
        },
        {
          "operationId": "Mth_03_01_n",
          "resultGroups": [
            {
              "groupingId": "AnlsGrouping_07_Trt01An",
              "groupId": "AnlsGrouping_07_Trt01An_03"
            }
          ],
          "rawValue": "28",
          "formattedValue": "28"
        },
        {
          "operationId": "Mth_03_02_%",
          "resultGroups": [
            {
              "groupingId": "AnlsGrouping_07_Trt01An",
              "groupId": "AnlsGrouping_07_Trt01An_03"
            }
          ],
          "rawValue": "32.558139535",
          "formattedValue": "(32.6)"
        }
      ]
    },
    {
      "name": "Comparison of subjects who discontinued study drug, Xanomeline Low Dose vs Placebo",
      "id": "An_22",
      "reason": {
        "controlledTerm": "SPECIFIED IN SAP"
      },
      "purpose": {
        "sponsorTermId": "TermEx01_01"
      },
      "methodId": "Mth_03_1",
      "version": 1,
      "categoryIds": [
        "ANSET_01",
        "ANSET_01_ANINT_02"
      ],
      "dataset": "ADSL",
      "variable": "USUBJID",
      "analysisSetId": "AnalysisSet_03",
      "dataSubsetId": "Dss_39",
      "orderedGroupings": [
        {
          "order": 1,
          "groupingId": "AnlsGrouping_07_Trt01An",
          "resultsByGroup": false
        }
      ],
      "results": [
        {
          "operationId": "Mth_03_1_01_Risk_Difference_%",
          "resultGroups": [
            {
              "groupingId": "AnlsGrouping_07_Trt01An"
            }
          ],
          "rawValue": "37.679955703",
          "formattedValue": "37.7"
        },
        {
          "operationId": "Mth_03_1_02_95%_CI_Low",
          "resultGroups": [
            {
              "groupingId": "AnlsGrouping_07_Trt01An"
            }
          ],
          "rawValue": "23.762811565",
          "formattedValue": "23.8"
        },
        {
          "operationId": "Mth_03_1_03_95%_CI_High",
          "resultGroups": [
            {
              "groupingId": "AnlsGrouping_07_Trt01An"
            }
          ],
          "rawValue": "51.597099842",
          "formattedValue": "51.6"
        }
      ]
    },
    {
      "name": "Comparison of subjects who discontinued study drug, Xanomeline High Dose vs Placebo",
      "id": "An_22_1",
      "reason": {
        "controlledTerm": "SPECIFIED IN SAP"
      },
      "purpose": {
        "sponsorTermId": "TermEx01_01"
      },
      "methodId": "Mth_03_1",
      "version": 1,
      "categoryIds": [
        "ANSET_01",
        "ANSET_01_ANINT_02"
      ],
      "dataset": "ADSL",
      "variable": "USUBJID",
      "analysisSetId": "AnalysisSet_03",
      "dataSubsetId": "Dss_40",
      "orderedGroupings": [
        {
          "order": 1,
          "groupingId": "AnlsGrouping_07_Trt01An",
          "resultsByGroup": false
        }
      ],
      "results": [
        {
          "operationId": "Mth_03_1_01_Risk_Difference_%",
          "resultGroups": [
            {
              "groupingId": "AnlsGrouping_07_Trt01An"
            }
          ],
          "rawValue": "35.299003322",
          "formattedValue": "35.3"
        },
        {
          "operationId": "Mth_03_1_02_95%_CI_Low",
          "resultGroups": [
            {
              "groupingId": "AnlsGrouping_07_Trt01An"
            }
          ],
          "rawValue": "21.233618539",
          "formattedValue": "21.2"
        },
        {
          "operationId": "Mth_03_1_03_95%_CI_High",
          "resultGroups": [
            {
              "groupingId": "AnlsGrouping_07_Trt01An"
            }
          ],
          "rawValue": "49.364388106",
          "formattedValue": "49.4"
        }
      ]
    },
    {
      "name": "Summary of subjects who discontinued study drug by Treatment and Reason for Discontinuation of Treatment",
      "id": "An_21_1",
      "reason": {
        "controlledTerm": "SPECIFIED IN SAP"
      },
      "purpose": {
        "sponsorTermId": "TermEx01_01"
      },
      "methodId": "Mth_03",
      "version": 1,
      "categoryIds": [
        "ANSET_01",
        "ANSET_01_ANINT_02"
      ],
      "dataset": "ADSL",
      "variable": "USUBJID",
      "analysisSetId": "AnalysisSet_03",
      "dataSubsetId": "Dss_38",
      "orderedGroupings": [
        {
          "order": 1,
          "groupingId": "AnlsGrouping_07_Trt01An",
          "resultsByGroup": true
        },
        {
          "order": 2,
          "groupingId": "AnlsGrouping_12_Dctreas",
          "resultsByGroup": true
        }
      ],
      "referencedAnalysisOperations": [
        {
          "referencedOperationRelationshipId": "Mth_03_pct_NUM",
          "analysisId": "An_21"
        },
        {
          "referencedOperationRelationshipId": "Mth_03_pct_DEN",
          "analysisId": "An_12"
        }
      ],
      "results": [
        {
          "operationId": "Mth_03_01_n",
          "resultGroups": [
            {
              "groupingId": "AnlsGrouping_07_Trt01An",
              "groupId": "AnlsGrouping_07_Trt01An_01"
            },
            {
              "groupingId": "AnlsGrouping_12_Dctreas",
              "groupId": "AnlsGrouping_12_Dctreas_01"
            }
          ],
          "rawValue": "44",
          "formattedValue": "44"
        },
        {
          "operationId": "Mth_03_02_%",
          "resultGroups": [
            {
              "groupingId": "AnlsGrouping_07_Trt01An",
              "groupId": "AnlsGrouping_07_Trt01An_01"
            },
            {
              "groupingId": "AnlsGrouping_12_Dctreas",
              "groupId": "AnlsGrouping_12_Dctreas_01"
            }
          ],
          "rawValue": "52.380952381",
          "formattedValue": "(52.4)"
        },
        {
          "operationId": "Mth_03_01_n",
          "resultGroups": [
            {
              "groupingId": "AnlsGrouping_07_Trt01An",
              "groupId": "AnlsGrouping_07_Trt01An_01"
            },
            {
              "groupingId": "AnlsGrouping_12_Dctreas",
              "groupId": "AnlsGrouping_12_Dctreas_02"
            }
          ],
          "rawValue": "0",
          "formattedValue": "0"
        },
        {
          "operationId": "Mth_03_02_%",
          "resultGroups": [
            {
              "groupingId": "AnlsGrouping_07_Trt01An",
              "groupId": "AnlsGrouping_07_Trt01An_01"
            },
            {
              "groupingId": "AnlsGrouping_12_Dctreas",
              "groupId": "AnlsGrouping_12_Dctreas_02"
            }
          ],
          "rawValue": "0",
          "formattedValue": "(0.0)"
        },
        {
          "operationId": "Mth_03_01_n",
          "resultGroups": [
            {
              "groupingId": "AnlsGrouping_07_Trt01An",
              "groupId": "AnlsGrouping_07_Trt01An_01"
            },
            {
              "groupingId": "AnlsGrouping_12_Dctreas",
              "groupId": "AnlsGrouping_12_Dctreas_03"
            }
          ],
          "rawValue": "1",
          "formattedValue": "1"
        },
        {
          "operationId": "Mth_03_02_%",
          "resultGroups": [
            {
              "groupingId": "AnlsGrouping_07_Trt01An",
              "groupId": "AnlsGrouping_07_Trt01An_01"
            },
            {
              "groupingId": "AnlsGrouping_12_Dctreas",
              "groupId": "AnlsGrouping_12_Dctreas_03"
            }
          ],
          "rawValue": "1.1904761905",
          "formattedValue": "(1.2)"
        },
        {
          "operationId": "Mth_03_01_n",
          "resultGroups": [
            {
              "groupingId": "AnlsGrouping_07_Trt01An",
              "groupId": "AnlsGrouping_07_Trt01An_01"
            },
            {
              "groupingId": "AnlsGrouping_12_Dctreas",
              "groupId": "AnlsGrouping_12_Dctreas_04"
            }
          ],
          "rawValue": "1",
          "formattedValue": "1"
        },
        {
          "operationId": "Mth_03_02_%",
          "resultGroups": [
            {
              "groupingId": "AnlsGrouping_07_Trt01An",
              "groupId": "AnlsGrouping_07_Trt01An_01"
            },
            {
              "groupingId": "AnlsGrouping_12_Dctreas",
              "groupId": "AnlsGrouping_12_Dctreas_04"
            }
          ],
          "rawValue": "1.1904761905",
          "formattedValue": "(1.2)"
        },
        {
          "operationId": "Mth_03_01_n",
          "resultGroups": [
            {
              "groupingId": "AnlsGrouping_07_Trt01An",
              "groupId": "AnlsGrouping_07_Trt01An_01"
            },
            {
              "groupingId": "AnlsGrouping_12_Dctreas",
              "groupId": "AnlsGrouping_12_Dctreas_05"
            }
          ],
          "rawValue": "11",
          "formattedValue": "11"
        },
        {
          "operationId": "Mth_03_02_%",
          "resultGroups": [
            {
              "groupingId": "AnlsGrouping_07_Trt01An",
              "groupId": "AnlsGrouping_07_Trt01An_01"
            },
            {
              "groupingId": "AnlsGrouping_12_Dctreas",
              "groupId": "AnlsGrouping_12_Dctreas_05"
            }
          ],
          "rawValue": "13.095238095",
          "formattedValue": "(13.1)"
        },
        {
          "operationId": "Mth_03_01_n",
          "resultGroups": [
            {
              "groupingId": "AnlsGrouping_07_Trt01An",
              "groupId": "AnlsGrouping_07_Trt01An_01"
            },
            {
              "groupingId": "AnlsGrouping_12_Dctreas",
              "groupId": "AnlsGrouping_12_Dctreas_06"
            }
          ],
          "rawValue": "2",
          "formattedValue": "2"
        },
        {
          "operationId": "Mth_03_02_%",
          "resultGroups": [
            {
              "groupingId": "AnlsGrouping_07_Trt01An",
              "groupId": "AnlsGrouping_07_Trt01An_01"
            },
            {
              "groupingId": "AnlsGrouping_12_Dctreas",
              "groupId": "AnlsGrouping_12_Dctreas_06"
            }
          ],
          "rawValue": "2.380952381",
          "formattedValue": "(2.4)"
        },
        {
          "operationId": "Mth_03_01_n",
          "resultGroups": [
            {
              "groupingId": "AnlsGrouping_07_Trt01An",
              "groupId": "AnlsGrouping_07_Trt01An_02"
            },
            {
              "groupingId": "AnlsGrouping_12_Dctreas",
              "groupId": "AnlsGrouping_12_Dctreas_01"
            }
          ],
          "rawValue": "40",
          "formattedValue": "40"
        },
        {
          "operationId": "Mth_03_02_%",
          "resultGroups": [
            {
              "groupingId": "AnlsGrouping_07_Trt01An",
              "groupId": "AnlsGrouping_07_Trt01An_02"
            },
            {
              "groupingId": "AnlsGrouping_12_Dctreas",
              "groupId": "AnlsGrouping_12_Dctreas_01"
            }
          ],
          "rawValue": "47.619047619",
          "formattedValue": "(47.6)"
        },
        {
          "operationId": "Mth_03_01_n",
          "resultGroups": [
            {
              "groupingId": "AnlsGrouping_07_Trt01An",
              "groupId": "AnlsGrouping_07_Trt01An_02"
            },
            {
              "groupingId": "AnlsGrouping_12_Dctreas",
              "groupId": "AnlsGrouping_12_Dctreas_02"
            }
          ],
          "rawValue": "1",
          "formattedValue": "1"
        },
        {
          "operationId": "Mth_03_02_%",
          "resultGroups": [
            {
              "groupingId": "AnlsGrouping_07_Trt01An",
              "groupId": "AnlsGrouping_07_Trt01An_02"
            },
            {
              "groupingId": "AnlsGrouping_12_Dctreas",
              "groupId": "AnlsGrouping_12_Dctreas_02"
            }
          ],
          "rawValue": "1.1904761905",
          "formattedValue": "(1.2)"
        },
        {
          "operationId": "Mth_03_01_n",
          "resultGroups": [
            {
              "groupingId": "AnlsGrouping_07_Trt01An",
              "groupId": "AnlsGrouping_07_Trt01An_02"
            },
            {
              "groupingId": "AnlsGrouping_12_Dctreas",
              "groupId": "AnlsGrouping_12_Dctreas_03"
            }
          ],
          "rawValue": "3",
          "formattedValue": "3"
        },
        {
          "operationId": "Mth_03_02_%",
          "resultGroups": [
            {
              "groupingId": "AnlsGrouping_07_Trt01An",
              "groupId": "AnlsGrouping_07_Trt01An_02"
            },
            {
              "groupingId": "AnlsGrouping_12_Dctreas",
              "groupId": "AnlsGrouping_12_Dctreas_03"
            }
          ],
          "rawValue": "3.5714285714",
          "formattedValue": "(3.6)"
        },
        {
          "operationId": "Mth_03_01_n",
          "resultGroups": [
            {
              "groupingId": "AnlsGrouping_07_Trt01An",
              "groupId": "AnlsGrouping_07_Trt01An_02"
            },
            {
              "groupingId": "AnlsGrouping_12_Dctreas",
              "groupId": "AnlsGrouping_12_Dctreas_04"
            }
          ],
          "rawValue": "0",
          "formattedValue": "0"
        },
        {
          "operationId": "Mth_03_02_%",
          "resultGroups": [
            {
              "groupingId": "AnlsGrouping_07_Trt01An",
              "groupId": "AnlsGrouping_07_Trt01An_02"
            },
            {
              "groupingId": "AnlsGrouping_12_Dctreas",
              "groupId": "AnlsGrouping_12_Dctreas_04"
            }
          ],
          "rawValue": "0",
          "formattedValue": "(0.0)"
        },
        {
          "operationId": "Mth_03_01_n",
          "resultGroups": [
            {
              "groupingId": "AnlsGrouping_07_Trt01An",
              "groupId": "AnlsGrouping_07_Trt01An_02"
            },
            {
              "groupingId": "AnlsGrouping_12_Dctreas",
              "groupId": "AnlsGrouping_12_Dctreas_05"
            }
          ],
          "rawValue": "8",
          "formattedValue": "8"
        },
        {
          "operationId": "Mth_03_02_%",
          "resultGroups": [
            {
              "groupingId": "AnlsGrouping_07_Trt01An",
              "groupId": "AnlsGrouping_07_Trt01An_02"
            },
            {
              "groupingId": "AnlsGrouping_12_Dctreas",
              "groupId": "AnlsGrouping_12_Dctreas_05"
            }
          ],
          "rawValue": "9.5238095238",
          "formattedValue": "(9.5)"
        },
        {
          "operationId": "Mth_03_01_n",
          "resultGroups": [
            {
              "groupingId": "AnlsGrouping_07_Trt01An",
              "groupId": "AnlsGrouping_07_Trt01An_02"
            },
            {
              "groupingId": "AnlsGrouping_12_Dctreas",
              "groupId": "AnlsGrouping_12_Dctreas_06"
            }
          ],
          "rawValue": "5",
          "formattedValue": "5"
        },
        {
          "operationId": "Mth_03_02_%",
          "resultGroups": [
            {
              "groupingId": "AnlsGrouping_07_Trt01An",
              "groupId": "AnlsGrouping_07_Trt01An_02"
            },
            {
              "groupingId": "AnlsGrouping_12_Dctreas",
              "groupId": "AnlsGrouping_12_Dctreas_06"
            }
          ],
          "rawValue": "5.9523809524",
          "formattedValue": "(6.0)"
        },
        {
          "operationId": "Mth_03_01_n",
          "resultGroups": [
            {
              "groupingId": "AnlsGrouping_07_Trt01An",
              "groupId": "AnlsGrouping_07_Trt01An_03"
            },
            {
              "groupingId": "AnlsGrouping_12_Dctreas",
              "groupId": "AnlsGrouping_12_Dctreas_01"
            }
          ],
          "rawValue": "8",
          "formattedValue": "8"
        },
        {
          "operationId": "Mth_03_02_%",
          "resultGroups": [
            {
              "groupingId": "AnlsGrouping_07_Trt01An",
              "groupId": "AnlsGrouping_07_Trt01An_03"
            },
            {
              "groupingId": "AnlsGrouping_12_Dctreas",
              "groupId": "AnlsGrouping_12_Dctreas_01"
            }
          ],
          "rawValue": "9.3023255814",
          "formattedValue": "(9.3)"
        },
        {
          "operationId": "Mth_03_01_n",
          "resultGroups": [
            {
              "groupingId": "AnlsGrouping_07_Trt01An",
              "groupId": "AnlsGrouping_07_Trt01An_03"
            },
            {
              "groupingId": "AnlsGrouping_12_Dctreas",
              "groupId": "AnlsGrouping_12_Dctreas_02"
            }
          ],
          "rawValue": "3",
          "formattedValue": "3"
        },
        {
          "operationId": "Mth_03_02_%",
          "resultGroups": [
            {
              "groupingId": "AnlsGrouping_07_Trt01An",
              "groupId": "AnlsGrouping_07_Trt01An_03"
            },
            {
              "groupingId": "AnlsGrouping_12_Dctreas",
              "groupId": "AnlsGrouping_12_Dctreas_02"
            }
          ],
          "rawValue": "3.488372093",
          "formattedValue": "(3.5)"
        },
        {
          "operationId": "Mth_03_01_n",
          "resultGroups": [
            {
              "groupingId": "AnlsGrouping_07_Trt01An",
              "groupId": "AnlsGrouping_07_Trt01An_03"
            },
            {
              "groupingId": "AnlsGrouping_12_Dctreas",
              "groupId": "AnlsGrouping_12_Dctreas_03"
            }
          ],
          "rawValue": "2",
          "formattedValue": "2"
        },
        {
          "operationId": "Mth_03_02_%",
          "resultGroups": [
            {
              "groupingId": "AnlsGrouping_07_Trt01An",
              "groupId": "AnlsGrouping_07_Trt01An_03"
            },
            {
              "groupingId": "AnlsGrouping_12_Dctreas",
              "groupId": "AnlsGrouping_12_Dctreas_03"
            }
          ],
          "rawValue": "2.3255813953",
          "formattedValue": "(2.3)"
        },
        {
          "operationId": "Mth_03_01_n",
          "resultGroups": [
            {
              "groupingId": "AnlsGrouping_07_Trt01An",
              "groupId": "AnlsGrouping_07_Trt01An_03"
            },
            {
              "groupingId": "AnlsGrouping_12_Dctreas",
              "groupId": "AnlsGrouping_12_Dctreas_04"
            }
          ],
          "rawValue": "2",
          "formattedValue": "2"
        },
        {
          "operationId": "Mth_03_02_%",
          "resultGroups": [
            {
              "groupingId": "AnlsGrouping_07_Trt01An",
              "groupId": "AnlsGrouping_07_Trt01An_03"
            },
            {
              "groupingId": "AnlsGrouping_12_Dctreas",
              "groupId": "AnlsGrouping_12_Dctreas_04"
            }
          ],
          "rawValue": "2.3255813953",
          "formattedValue": "(2.3)"
        },
        {
          "operationId": "Mth_03_01_n",
          "resultGroups": [
            {
              "groupingId": "AnlsGrouping_07_Trt01An",
              "groupId": "AnlsGrouping_07_Trt01An_03"
            },
            {
              "groupingId": "AnlsGrouping_12_Dctreas",
              "groupId": "AnlsGrouping_12_Dctreas_05"
            }
          ],
          "rawValue": "10",
          "formattedValue": "10"
        },
        {
          "operationId": "Mth_03_02_%",
          "resultGroups": [
            {
              "groupingId": "AnlsGrouping_07_Trt01An",
              "groupId": "AnlsGrouping_07_Trt01An_03"
            },
            {
              "groupingId": "AnlsGrouping_12_Dctreas",
              "groupId": "AnlsGrouping_12_Dctreas_05"
            }
          ],
          "rawValue": "11.627906977",
          "formattedValue": "(11.6)"
        },
        {
          "operationId": "Mth_03_01_n",
          "resultGroups": [
            {
              "groupingId": "AnlsGrouping_07_Trt01An",
              "groupId": "AnlsGrouping_07_Trt01An_03"
            },
            {
              "groupingId": "AnlsGrouping_12_Dctreas",
              "groupId": "AnlsGrouping_12_Dctreas_06"
            }
          ],
          "rawValue": "3",
          "formattedValue": "3"
        },
        {
          "operationId": "Mth_03_02_%",
          "resultGroups": [
            {
              "groupingId": "AnlsGrouping_07_Trt01An",
              "groupId": "AnlsGrouping_07_Trt01An_03"
            },
            {
              "groupingId": "AnlsGrouping_12_Dctreas",
              "groupId": "AnlsGrouping_12_Dctreas_06"
            }
          ],
          "rawValue": "3.488372093",
          "formattedValue": "(3.5)"
        }
      ]
    },
    {
      "name": "Comparison of subjects who discontinued study drug by Reason for Discontinuation of Treatment, Xanomeline Low Dose vs Placebo",
      "id": "An_22_2",
      "reason": {
        "controlledTerm": "SPECIFIED IN SAP"
      },
      "purpose": {
        "sponsorTermId": "TermEx01_01"
      },
      "methodId": "Mth_03_1",
      "version": 1,
      "categoryIds": [
        "ANSET_01",
        "ANSET_01_ANINT_02"
      ],
      "dataset": "ADSL",
      "variable": "USUBJID",
      "analysisSetId": "AnalysisSet_03",
      "dataSubsetId": "Dss_39",
      "orderedGroupings": [
        {
          "order": 1,
          "groupingId": "AnlsGrouping_07_Trt01An",
          "resultsByGroup": false
        },
        {
          "order": 2,
          "groupingId": "AnlsGrouping_12_Dctreas",
          "resultsByGroup": true
        }
      ],
      "results": [
        {
          "operationId": "Mth_03_1_01_Risk_Difference_%",
          "resultGroups": [
            {
              "groupingId": "AnlsGrouping_07_Trt01An"
            },
            {
              "groupingId": "AnlsGrouping_12_Dctreas",
              "groupId": "AnlsGrouping_12_Dctreas_01"
            }
          ],
          "rawValue": "43.0786268",
          "formattedValue": "43.1"
        },
        {
          "operationId": "Mth_03_1_02_95%_CI_Low",
          "resultGroups": [
            {
              "groupingId": "AnlsGrouping_07_Trt01An"
            },
            {
              "groupingId": "AnlsGrouping_12_Dctreas",
              "groupId": "AnlsGrouping_12_Dctreas_01"
            }
          ],
          "rawValue": "30.759457775",
          "formattedValue": "30.8"
        },
        {
          "operationId": "Mth_03_1_03_95%_CI_High",
          "resultGroups": [
            {
              "groupingId": "AnlsGrouping_07_Trt01An"
            },
            {
              "groupingId": "AnlsGrouping_12_Dctreas",
              "groupId": "AnlsGrouping_12_Dctreas_01"
            }
          ],
          "rawValue": "55.397795824",
          "formattedValue": "55.4"
        },
        {
          "operationId": "Mth_03_1_01_Risk_Difference_%",
          "resultGroups": [
            {
              "groupingId": "AnlsGrouping_07_Trt01An"
            },
            {
              "groupingId": "AnlsGrouping_12_Dctreas",
              "groupId": "AnlsGrouping_12_Dctreas_02"
            }
          ],
          "rawValue": "-3.488372093",
          "formattedValue": "-3.5"
        },
        {
          "operationId": "Mth_03_1_02_95%_CI_Low",
          "resultGroups": [
            {
              "groupingId": "AnlsGrouping_07_Trt01An"
            },
            {
              "groupingId": "AnlsGrouping_12_Dctreas",
              "groupId": "AnlsGrouping_12_Dctreas_02"
            }
          ],
          "rawValue": "-7.366374444",
          "formattedValue": "-7.4"
        },
        {
          "operationId": "Mth_03_1_03_95%_CI_High",
          "resultGroups": [
            {
              "groupingId": "AnlsGrouping_07_Trt01An"
            },
            {
              "groupingId": "AnlsGrouping_12_Dctreas",
              "groupId": "AnlsGrouping_12_Dctreas_02"
            }
          ],
          "rawValue": "0.3896302581",
          "formattedValue": "0.4"
        },
        {
          "operationId": "Mth_03_1_01_Risk_Difference_%",
          "resultGroups": [
            {
              "groupingId": "AnlsGrouping_07_Trt01An"
            },
            {
              "groupingId": "AnlsGrouping_12_Dctreas",
              "groupId": "AnlsGrouping_12_Dctreas_03"
            }
          ],
          "rawValue": "-1.135105205",
          "formattedValue": "-1.1"
        },
        {
          "operationId": "Mth_03_1_02_95%_CI_Low",
          "resultGroups": [
            {
              "groupingId": "AnlsGrouping_07_Trt01An"
            },
            {
              "groupingId": "AnlsGrouping_12_Dctreas",
              "groupId": "AnlsGrouping_12_Dctreas_03"
            }
          ],
          "rawValue": "-5.075455297",
          "formattedValue": "-5.1"
        },
        {
          "operationId": "Mth_03_1_03_95%_CI_High",
          "resultGroups": [
            {
              "groupingId": "AnlsGrouping_07_Trt01An"
            },
            {
              "groupingId": "AnlsGrouping_12_Dctreas",
              "groupId": "AnlsGrouping_12_Dctreas_03"
            }
          ],
          "rawValue": "2.8052448872",
          "formattedValue": "2.8"
        },
        {
          "operationId": "Mth_03_1_01_Risk_Difference_%",
          "resultGroups": [
            {
              "groupingId": "AnlsGrouping_07_Trt01An"
            },
            {
              "groupingId": "AnlsGrouping_12_Dctreas",
              "groupId": "AnlsGrouping_12_Dctreas_04"
            }
          ],
          "rawValue": "-1.135105205",
          "formattedValue": "-1.1"
        },
        {
          "operationId": "Mth_03_1_02_95%_CI_Low",
          "resultGroups": [
            {
              "groupingId": "AnlsGrouping_07_Trt01An"
            },
            {
              "groupingId": "AnlsGrouping_12_Dctreas",
              "groupId": "AnlsGrouping_12_Dctreas_04"
            }
          ],
          "rawValue": "-5.075455297",
          "formattedValue": "-5.1"
        },
        {
          "operationId": "Mth_03_1_03_95%_CI_High",
          "resultGroups": [
            {
              "groupingId": "AnlsGrouping_07_Trt01An"
            },
            {
              "groupingId": "AnlsGrouping_12_Dctreas",
              "groupId": "AnlsGrouping_12_Dctreas_04"
            }
          ],
          "rawValue": "2.8052448872",
          "formattedValue": "2.8"
        },
        {
          "operationId": "Mth_03_1_01_Risk_Difference_%",
          "resultGroups": [
            {
              "groupingId": "AnlsGrouping_07_Trt01An"
            },
            {
              "groupingId": "AnlsGrouping_12_Dctreas",
              "groupId": "AnlsGrouping_12_Dctreas_05"
            }
          ],
          "rawValue": "1.4673311185",
          "formattedValue": "1.5"
        },
        {
          "operationId": "Mth_03_1_02_95%_CI_Low",
          "resultGroups": [
            {
              "groupingId": "AnlsGrouping_07_Trt01An"
            },
            {
              "groupingId": "AnlsGrouping_12_Dctreas",
              "groupId": "AnlsGrouping_12_Dctreas_05"
            }
          ],
          "rawValue": "-8.429545488",
          "formattedValue": "-8.4"
        },
        {
          "operationId": "Mth_03_1_03_95%_CI_High",
          "resultGroups": [
            {
              "groupingId": "AnlsGrouping_07_Trt01An"
            },
            {
              "groupingId": "AnlsGrouping_12_Dctreas",
              "groupId": "AnlsGrouping_12_Dctreas_05"
            }
          ],
          "rawValue": "11.364207725",
          "formattedValue": "11.4"
        },
        {
          "operationId": "Mth_03_1_01_Risk_Difference_%",
          "resultGroups": [
            {
              "groupingId": "AnlsGrouping_07_Trt01An"
            },
            {
              "groupingId": "AnlsGrouping_12_Dctreas",
              "groupId": "AnlsGrouping_12_Dctreas_06"
            }
          ],
          "rawValue": "-1.107419712",
          "formattedValue": "-1.1"
        },
        {
          "operationId": "Mth_03_1_02_95%_CI_Low",
          "resultGroups": [
            {
              "groupingId": "AnlsGrouping_07_Trt01An"
            },
            {
              "groupingId": "AnlsGrouping_12_Dctreas",
              "groupId": "AnlsGrouping_12_Dctreas_06"
            }
          ],
          "rawValue": "-6.173831841",
          "formattedValue": "-6.2"
        },
        {
          "operationId": "Mth_03_1_03_95%_CI_High",
          "resultGroups": [
            {
              "groupingId": "AnlsGrouping_07_Trt01An"
            },
            {
              "groupingId": "AnlsGrouping_12_Dctreas",
              "groupId": "AnlsGrouping_12_Dctreas_06"
            }
          ],
          "rawValue": "3.9589924173",
          "formattedValue": "4.0"
        }
      ]
    },
    {
      "name": "Comparison of subjects who discontinued study drug by Reason for Discontinuation of Treatment, Xanomeline High Dose vs Placebo",
      "id": "An_22_3",
      "reason": {
        "controlledTerm": "SPECIFIED IN SAP"
      },
      "purpose": {
        "sponsorTermId": "TermEx01_01"
      },
      "methodId": "Mth_03_1",
      "version": 1,
      "categoryIds": [
        "ANSET_01",
        "ANSET_01_ANINT_02"
      ],
      "dataset": "ADSL",
      "variable": "USUBJID",
      "analysisSetId": "AnalysisSet_03",
      "dataSubsetId": "Dss_40",
      "orderedGroupings": [
        {
          "order": 1,
          "groupingId": "AnlsGrouping_07_Trt01An",
          "resultsByGroup": false
        },
        {
          "order": 2,
          "groupingId": "AnlsGrouping_12_Dctreas",
          "resultsByGroup": true
        }
      ],
      "results": [
        {
          "operationId": "Mth_03_1_01_Risk_Difference_%",
          "resultGroups": [
            {
              "groupingId": "AnlsGrouping_07_Trt01An"
            },
            {
              "groupingId": "AnlsGrouping_12_Dctreas",
              "groupId": "AnlsGrouping_12_Dctreas_01"
            }
          ],
          "rawValue": "38.316722038",
          "formattedValue": "38.3"
        },
        {
          "operationId": "Mth_03_1_02_95%_CI_Low",
          "resultGroups": [
            {
              "groupingId": "AnlsGrouping_07_Trt01An"
            },
            {
              "groupingId": "AnlsGrouping_12_Dctreas",
              "groupId": "AnlsGrouping_12_Dctreas_01"
            }
          ],
          "rawValue": "25.997553013",
          "formattedValue": "26.0"
        },
        {
          "operationId": "Mth_03_1_03_95%_CI_High",
          "resultGroups": [
            {
              "groupingId": "AnlsGrouping_07_Trt01An"
            },
            {
              "groupingId": "AnlsGrouping_12_Dctreas",
              "groupId": "AnlsGrouping_12_Dctreas_01"
            }
          ],
          "rawValue": "50.635891062",
          "formattedValue": "50.6"
        },
        {
          "operationId": "Mth_03_1_01_Risk_Difference_%",
          "resultGroups": [
            {
              "groupingId": "AnlsGrouping_07_Trt01An"
            },
            {
              "groupingId": "AnlsGrouping_12_Dctreas",
              "groupId": "AnlsGrouping_12_Dctreas_02"
            }
          ],
          "rawValue": "-2.297895903",
          "formattedValue": "-2.3"
        },
        {
          "operationId": "Mth_03_1_02_95%_CI_Low",
          "resultGroups": [
            {
              "groupingId": "AnlsGrouping_07_Trt01An"
            },
            {
              "groupingId": "AnlsGrouping_12_Dctreas",
              "groupId": "AnlsGrouping_12_Dctreas_02"
            }
          ],
          "rawValue": "-6.816582865",
          "formattedValue": "-6.8"
        },
        {
          "operationId": "Mth_03_1_03_95%_CI_High",
          "resultGroups": [
            {
              "groupingId": "AnlsGrouping_07_Trt01An"
            },
            {
              "groupingId": "AnlsGrouping_12_Dctreas",
              "groupId": "AnlsGrouping_12_Dctreas_02"
            }
          ],
          "rawValue": "2.2207910599",
          "formattedValue": "2.2"
        },
        {
          "operationId": "Mth_03_1_01_Risk_Difference_%",
          "resultGroups": [
            {
              "groupingId": "AnlsGrouping_07_Trt01An"
            },
            {
              "groupingId": "AnlsGrouping_12_Dctreas",
              "groupId": "AnlsGrouping_12_Dctreas_03"
            }
          ],
          "rawValue": "1.2458471761",
          "formattedValue": "1.2"
        },
        {
          "operationId": "Mth_03_1_02_95%_CI_Low",
          "resultGroups": [
            {
              "groupingId": "AnlsGrouping_07_Trt01An"
            },
            {
              "groupingId": "AnlsGrouping_12_Dctreas",
              "groupId": "AnlsGrouping_12_Dctreas_03"
            }
          ],
          "rawValue": "-3.843035729",
          "formattedValue": "-3.8"
        },
        {
          "operationId": "Mth_03_1_03_95%_CI_High",
          "resultGroups": [
            {
              "groupingId": "AnlsGrouping_07_Trt01An"
            },
            {
              "groupingId": "AnlsGrouping_12_Dctreas",
              "groupId": "AnlsGrouping_12_Dctreas_03"
            }
          ],
          "rawValue": "6.3347300809",
          "formattedValue": "6.3"
        },
        {
          "operationId": "Mth_03_1_01_Risk_Difference_%",
          "resultGroups": [
            {
              "groupingId": "AnlsGrouping_07_Trt01An"
            },
            {
              "groupingId": "AnlsGrouping_12_Dctreas",
              "groupId": "AnlsGrouping_12_Dctreas_04"
            }
          ],
          "rawValue": "-2.325581395",
          "formattedValue": "-2.3"
        },
        {
          "operationId": "Mth_03_1_02_95%_CI_Low",
          "resultGroups": [
            {
              "groupingId": "AnlsGrouping_07_Trt01An"
            },
            {
              "groupingId": "AnlsGrouping_12_Dctreas",
              "groupId": "AnlsGrouping_12_Dctreas_04"
            }
          ],
          "rawValue": "-5.510974498",
          "formattedValue": "-5.5"
        },
        {
          "operationId": "Mth_03_1_03_95%_CI_High",
          "resultGroups": [
            {
              "groupingId": "AnlsGrouping_07_Trt01An"
            },
            {
              "groupingId": "AnlsGrouping_12_Dctreas",
              "groupId": "AnlsGrouping_12_Dctreas_04"
            }
          ],
          "rawValue": "0.8598117074",
          "formattedValue": "0.9"
        },
        {
          "operationId": "Mth_03_1_01_Risk_Difference_%",
          "resultGroups": [
            {
              "groupingId": "AnlsGrouping_07_Trt01An"
            },
            {
              "groupingId": "AnlsGrouping_12_Dctreas",
              "groupId": "AnlsGrouping_12_Dctreas_05"
            }
          ],
          "rawValue": "-2.104097453",
          "formattedValue": "-2.1"
        },
        {
          "operationId": "Mth_03_1_02_95%_CI_Low",
          "resultGroups": [
            {
              "groupingId": "AnlsGrouping_07_Trt01An"
            },
            {
              "groupingId": "AnlsGrouping_12_Dctreas",
              "groupId": "AnlsGrouping_12_Dctreas_05"
            }
          ],
          "rawValue": "-11.34039962",
          "formattedValue": "-11.3"
        },
        {
          "operationId": "Mth_03_1_03_95%_CI_High",
          "resultGroups": [
            {
              "groupingId": "AnlsGrouping_07_Trt01An"
            },
            {
              "groupingId": "AnlsGrouping_12_Dctreas",
              "groupId": "AnlsGrouping_12_Dctreas_05"
            }
          ],
          "rawValue": "7.1322047121",
          "formattedValue": "7.1"
        },
        {
          "operationId": "Mth_03_1_01_Risk_Difference_%",
          "resultGroups": [
            {
              "groupingId": "AnlsGrouping_07_Trt01An"
            },
            {
              "groupingId": "AnlsGrouping_12_Dctreas",
              "groupId": "AnlsGrouping_12_Dctreas_06"
            }
          ],
          "rawValue": "2.4640088594",
          "formattedValue": "2.5"
        },
        {
          "operationId": "Mth_03_1_02_95%_CI_Low",
          "resultGroups": [
            {
              "groupingId": "AnlsGrouping_07_Trt01An"
            },
            {
              "groupingId": "AnlsGrouping_12_Dctreas",
              "groupId": "AnlsGrouping_12_Dctreas_06"
            }
          ],
          "rawValue": "-3.911001265",
          "formattedValue": "-3.9"
        },
        {
          "operationId": "Mth_03_1_03_95%_CI_High",
          "resultGroups": [
            {
              "groupingId": "AnlsGrouping_07_Trt01An"
            },
            {
              "groupingId": "AnlsGrouping_12_Dctreas",
              "groupId": "AnlsGrouping_12_Dctreas_06"
            }
          ],
          "rawValue": "8.8390189838",
          "formattedValue": "8.8"
        }
      ]
    },
    {
      "name": "Summary of subjects who discontinued study by Treatment",
      "id": "An_23",
      "reason": {
        "controlledTerm": "SPECIFIED IN SAP"
      },
      "purpose": {
        "sponsorTermId": "TermEx01_01"
      },
      "methodId": "Mth_03",
      "version": 1,
      "categoryIds": [
        "ANSET_01",
        "ANSET_01_ANINT_02"
      ],
      "dataset": "ADSL",
      "variable": "USUBJID",
      "analysisSetId": "AnalysisSet_03",
      "dataSubsetId": "Dss_41",
      "orderedGroupings": [
        {
          "order": 1,
          "groupingId": "AnlsGrouping_07_Trt01An",
          "resultsByGroup": true
        }
      ],
      "referencedAnalysisOperations": [
        {
          "referencedOperationRelationshipId": "Mth_03_pct_NUM",
          "analysisId": "An_23"
        },
        {
          "referencedOperationRelationshipId": "Mth_03_pct_DEN",
          "analysisId": "An_12"
        }
      ],
      "results": [
        {
          "operationId": "Mth_03_01_n",
          "resultGroups": [
            {
              "groupingId": "AnlsGrouping_07_Trt01An",
              "groupId": "AnlsGrouping_07_Trt01An_01"
            }
          ],
          "rawValue": "59",
          "formattedValue": "59"
        },
        {
          "operationId": "Mth_03_02_%",
          "resultGroups": [
            {
              "groupingId": "AnlsGrouping_07_Trt01An",
              "groupId": "AnlsGrouping_07_Trt01An_01"
            }
          ],
          "rawValue": "70.238095238",
          "formattedValue": "(70.2)"
        },
        {
          "operationId": "Mth_03_01_n",
          "resultGroups": [
            {
              "groupingId": "AnlsGrouping_07_Trt01An",
              "groupId": "AnlsGrouping_07_Trt01An_02"
            }
          ],
          "rawValue": "57",
          "formattedValue": "57"
        },
        {
          "operationId": "Mth_03_02_%",
          "resultGroups": [
            {
              "groupingId": "AnlsGrouping_07_Trt01An",
              "groupId": "AnlsGrouping_07_Trt01An_02"
            }
          ],
          "rawValue": "67.857142857",
          "formattedValue": "(67.9)"
        },
        {
          "operationId": "Mth_03_01_n",
          "resultGroups": [
            {
              "groupingId": "AnlsGrouping_07_Trt01An",
              "groupId": "AnlsGrouping_07_Trt01An_03"
            }
          ],
          "rawValue": "28",
          "formattedValue": "28"
        },
        {
          "operationId": "Mth_03_02_%",
          "resultGroups": [
            {
              "groupingId": "AnlsGrouping_07_Trt01An",
              "groupId": "AnlsGrouping_07_Trt01An_03"
            }
          ],
          "rawValue": "32.558139535",
          "formattedValue": "(32.6)"
        }
      ]
    },
    {
      "name": "Comparison of subjects who discontinued study, Xanomeline Low Dose vs Placebo",
      "id": "An_24",
      "reason": {
        "controlledTerm": "SPECIFIED IN SAP"
      },
      "purpose": {
        "sponsorTermId": "TermEx01_01"
      },
      "methodId": "Mth_03_1",
      "version": 1,
      "categoryIds": [
        "ANSET_01",
        "ANSET_01_ANINT_02"
      ],
      "dataset": "ADSL",
      "variable": "USUBJID",
      "analysisSetId": "AnalysisSet_03",
      "dataSubsetId": "Dss_42",
      "orderedGroupings": [
        {
          "order": 1,
          "groupingId": "AnlsGrouping_07_Trt01An",
          "resultsByGroup": false
        }
      ],
      "results": [
        {
          "operationId": "Mth_03_1_01_Risk_Difference_%",
          "resultGroups": [
            {
              "groupingId": "AnlsGrouping_07_Trt01An"
            }
          ],
          "rawValue": "37.679955703",
          "formattedValue": "37.7"
        },
        {
          "operationId": "Mth_03_1_02_95%_CI_Low",
          "resultGroups": [
            {
              "groupingId": "AnlsGrouping_07_Trt01An"
            }
          ],
          "rawValue": "23.762811565",
          "formattedValue": "23.8"
        },
        {
          "operationId": "Mth_03_1_03_95%_CI_High",
          "resultGroups": [
            {
              "groupingId": "AnlsGrouping_07_Trt01An"
            }
          ],
          "rawValue": "51.597099842",
          "formattedValue": "51.6"
        }
      ]
    },
    {
      "name": "Comparison of subjects who discontinued study, Xanomeline High Dose vs Placebo",
      "id": "An_24_1",
      "reason": {
        "controlledTerm": "SPECIFIED IN SAP"
      },
      "purpose": {
        "sponsorTermId": "TermEx01_01"
      },
      "methodId": "Mth_03_1",
      "version": 1,
      "categoryIds": [
        "ANSET_01",
        "ANSET_01_ANINT_02"
      ],
      "dataset": "ADSL",
      "variable": "USUBJID",
      "analysisSetId": "AnalysisSet_03",
      "dataSubsetId": "Dss_43",
      "orderedGroupings": [
        {
          "order": 1,
          "groupingId": "AnlsGrouping_07_Trt01An",
          "resultsByGroup": false
        }
      ],
      "results": [
        {
          "operationId": "Mth_03_1_01_Risk_Difference_%",
          "resultGroups": [
            {
              "groupingId": "AnlsGrouping_07_Trt01An"
            }
          ],
          "rawValue": "35.299003322",
          "formattedValue": "35.3"
        },
        {
          "operationId": "Mth_03_1_02_95%_CI_Low",
          "resultGroups": [
            {
              "groupingId": "AnlsGrouping_07_Trt01An"
            }
          ],
          "rawValue": "21.233618539",
          "formattedValue": "21.2"
        },
        {
          "operationId": "Mth_03_1_03_95%_CI_High",
          "resultGroups": [
            {
              "groupingId": "AnlsGrouping_07_Trt01An"
            }
          ],
          "rawValue": "49.364388106",
          "formattedValue": "49.4"
        }
      ]
    },
    {
      "name": "Summary of subjects who discontinued study by Treatment and Reason for Discontinuation from Study",
      "id": "An_23_1",
      "reason": {
        "controlledTerm": "SPECIFIED IN SAP"
      },
      "purpose": {
        "sponsorTermId": "TermEx01_01"
      },
      "methodId": "Mth_03",
      "version": 1,
      "categoryIds": [
        "ANSET_01",
        "ANSET_01_ANINT_02"
      ],
      "dataset": "ADSL",
      "variable": "USUBJID",
      "analysisSetId": "AnalysisSet_03",
      "dataSubsetId": "Dss_41",
      "orderedGroupings": [
        {
          "order": 1,
          "groupingId": "AnlsGrouping_07_Trt01An",
          "resultsByGroup": true
        },
        {
          "order": 2,
          "groupingId": "AnlsGrouping_13_Dcsreas",
          "resultsByGroup": true
        }
      ],
      "referencedAnalysisOperations": [
        {
          "referencedOperationRelationshipId": "Mth_03_pct_NUM",
          "analysisId": "An_23"
        },
        {
          "referencedOperationRelationshipId": "Mth_03_pct_DEN",
          "analysisId": "An_12"
        }
      ],
      "results": [
        {
          "operationId": "Mth_03_01_n",
          "resultGroups": [
            {
              "groupingId": "AnlsGrouping_07_Trt01An",
              "groupId": "AnlsGrouping_07_Trt01An_01"
            },
            {
              "groupingId": "AnlsGrouping_13_Dcsreas",
              "groupId": "AnlsGrouping_13_Dcsreas_01"
            }
          ],
          "rawValue": "44",
          "formattedValue": "44"
        },
        {
          "operationId": "Mth_03_02_%",
          "resultGroups": [
            {
              "groupingId": "AnlsGrouping_07_Trt01An",
              "groupId": "AnlsGrouping_07_Trt01An_01"
            },
            {
              "groupingId": "AnlsGrouping_13_Dcsreas",
              "groupId": "AnlsGrouping_13_Dcsreas_01"
            }
          ],
          "rawValue": "52.380952381",
          "formattedValue": "(52.4)"
        },
        {
          "operationId": "Mth_03_01_n",
          "resultGroups": [
            {
              "groupingId": "AnlsGrouping_07_Trt01An",
              "groupId": "AnlsGrouping_07_Trt01An_01"
            },
            {
              "groupingId": "AnlsGrouping_13_Dcsreas",
              "groupId": "AnlsGrouping_13_Dcsreas_02"
            }
          ],
          "rawValue": "1",
          "formattedValue": "1"
        },
        {
          "operationId": "Mth_03_02_%",
          "resultGroups": [
            {
              "groupingId": "AnlsGrouping_07_Trt01An",
              "groupId": "AnlsGrouping_07_Trt01An_01"
            },
            {
              "groupingId": "AnlsGrouping_13_Dcsreas",
              "groupId": "AnlsGrouping_13_Dcsreas_02"
            }
          ],
          "rawValue": "1.1904761905",
          "formattedValue": "(1.2)"
        },
        {
          "operationId": "Mth_03_01_n",
          "resultGroups": [
            {
              "groupingId": "AnlsGrouping_07_Trt01An",
              "groupId": "AnlsGrouping_07_Trt01An_01"
            },
            {
              "groupingId": "AnlsGrouping_13_Dcsreas",
              "groupId": "AnlsGrouping_13_Dcsreas_03"
            }
          ],
          "rawValue": "1",
          "formattedValue": "1"
        },
        {
          "operationId": "Mth_03_02_%",
          "resultGroups": [
            {
              "groupingId": "AnlsGrouping_07_Trt01An",
              "groupId": "AnlsGrouping_07_Trt01An_01"
            },
            {
              "groupingId": "AnlsGrouping_13_Dcsreas",
              "groupId": "AnlsGrouping_13_Dcsreas_03"
            }
          ],
          "rawValue": "1.1904761905",
          "formattedValue": "(1.2)"
        },
        {
          "operationId": "Mth_03_01_n",
          "resultGroups": [
            {
              "groupingId": "AnlsGrouping_07_Trt01An",
              "groupId": "AnlsGrouping_07_Trt01An_01"
            },
            {
              "groupingId": "AnlsGrouping_13_Dcsreas",
              "groupId": "AnlsGrouping_13_Dcsreas_04"
            }
          ],
          "rawValue": "10",
          "formattedValue": "10"
        },
        {
          "operationId": "Mth_03_02_%",
          "resultGroups": [
            {
              "groupingId": "AnlsGrouping_07_Trt01An",
              "groupId": "AnlsGrouping_07_Trt01An_01"
            },
            {
              "groupingId": "AnlsGrouping_13_Dcsreas",
              "groupId": "AnlsGrouping_13_Dcsreas_04"
            }
          ],
          "rawValue": "11.904761905",
          "formattedValue": "(11.9)"
        },
        {
          "operationId": "Mth_03_01_n",
          "resultGroups": [
            {
              "groupingId": "AnlsGrouping_07_Trt01An",
              "groupId": "AnlsGrouping_07_Trt01An_01"
            },
            {
              "groupingId": "AnlsGrouping_13_Dcsreas",
              "groupId": "AnlsGrouping_13_Dcsreas_05"
            }
          ],
          "rawValue": "0",
          "formattedValue": "0"
        },
        {
          "operationId": "Mth_03_02_%",
          "resultGroups": [
            {
              "groupingId": "AnlsGrouping_07_Trt01An",
              "groupId": "AnlsGrouping_07_Trt01An_01"
            },
            {
              "groupingId": "AnlsGrouping_13_Dcsreas",
              "groupId": "AnlsGrouping_13_Dcsreas_05"
            }
          ],
          "rawValue": "0",
          "formattedValue": "(0.0)"
        },
        {
          "operationId": "Mth_03_01_n",
          "resultGroups": [
            {
              "groupingId": "AnlsGrouping_07_Trt01An",
              "groupId": "AnlsGrouping_07_Trt01An_01"
            },
            {
              "groupingId": "AnlsGrouping_13_Dcsreas",
              "groupId": "AnlsGrouping_13_Dcsreas_06"
            }
          ],
          "rawValue": "1",
          "formattedValue": "1"
        },
        {
          "operationId": "Mth_03_02_%",
          "resultGroups": [
            {
              "groupingId": "AnlsGrouping_07_Trt01An",
              "groupId": "AnlsGrouping_07_Trt01An_01"
            },
            {
              "groupingId": "AnlsGrouping_13_Dcsreas",
              "groupId": "AnlsGrouping_13_Dcsreas_06"
            }
          ],
          "rawValue": "1.1904761905",
          "formattedValue": "(1.2)"
        },
        {
          "operationId": "Mth_03_01_n",
          "resultGroups": [
            {
              "groupingId": "AnlsGrouping_07_Trt01An",
              "groupId": "AnlsGrouping_07_Trt01An_01"
            },
            {
              "groupingId": "AnlsGrouping_13_Dcsreas",
              "groupId": "AnlsGrouping_13_Dcsreas_07"
            }
          ],
          "rawValue": "2",
          "formattedValue": "2"
        },
        {
          "operationId": "Mth_03_02_%",
          "resultGroups": [
            {
              "groupingId": "AnlsGrouping_07_Trt01An",
              "groupId": "AnlsGrouping_07_Trt01An_01"
            },
            {
              "groupingId": "AnlsGrouping_13_Dcsreas",
              "groupId": "AnlsGrouping_13_Dcsreas_07"
            }
          ],
          "rawValue": "2.380952381",
          "formattedValue": "(2.4)"
        },
        {
          "operationId": "Mth_03_01_n",
          "resultGroups": [
            {
              "groupingId": "AnlsGrouping_07_Trt01An",
              "groupId": "AnlsGrouping_07_Trt01An_02"
            },
            {
              "groupingId": "AnlsGrouping_13_Dcsreas",
              "groupId": "AnlsGrouping_13_Dcsreas_01"
            }
          ],
          "rawValue": "40",
          "formattedValue": "40"
        },
        {
          "operationId": "Mth_03_02_%",
          "resultGroups": [
            {
              "groupingId": "AnlsGrouping_07_Trt01An",
              "groupId": "AnlsGrouping_07_Trt01An_02"
            },
            {
              "groupingId": "AnlsGrouping_13_Dcsreas",
              "groupId": "AnlsGrouping_13_Dcsreas_01"
            }
          ],
          "rawValue": "47.619047619",
          "formattedValue": "(47.6)"
        },
        {
          "operationId": "Mth_03_01_n",
          "resultGroups": [
            {
              "groupingId": "AnlsGrouping_07_Trt01An",
              "groupId": "AnlsGrouping_07_Trt01An_02"
            },
            {
              "groupingId": "AnlsGrouping_13_Dcsreas",
              "groupId": "AnlsGrouping_13_Dcsreas_02"
            }
          ],
          "rawValue": "0",
          "formattedValue": "0"
        },
        {
          "operationId": "Mth_03_02_%",
          "resultGroups": [
            {
              "groupingId": "AnlsGrouping_07_Trt01An",
              "groupId": "AnlsGrouping_07_Trt01An_02"
            },
            {
              "groupingId": "AnlsGrouping_13_Dcsreas",
              "groupId": "AnlsGrouping_13_Dcsreas_02"
            }
          ],
          "rawValue": "0",
          "formattedValue": "(0.0)"
        },
        {
          "operationId": "Mth_03_01_n",
          "resultGroups": [
            {
              "groupingId": "AnlsGrouping_07_Trt01An",
              "groupId": "AnlsGrouping_07_Trt01An_02"
            },
            {
              "groupingId": "AnlsGrouping_13_Dcsreas",
              "groupId": "AnlsGrouping_13_Dcsreas_03"
            }
          ],
          "rawValue": "0",
          "formattedValue": "0"
        },
        {
          "operationId": "Mth_03_02_%",
          "resultGroups": [
            {
              "groupingId": "AnlsGrouping_07_Trt01An",
              "groupId": "AnlsGrouping_07_Trt01An_02"
            },
            {
              "groupingId": "AnlsGrouping_13_Dcsreas",
              "groupId": "AnlsGrouping_13_Dcsreas_03"
            }
          ],
          "rawValue": "0",
          "formattedValue": "(0.0)"
        },
        {
          "operationId": "Mth_03_01_n",
          "resultGroups": [
            {
              "groupingId": "AnlsGrouping_07_Trt01An",
              "groupId": "AnlsGrouping_07_Trt01An_02"
            },
            {
              "groupingId": "AnlsGrouping_13_Dcsreas",
              "groupId": "AnlsGrouping_13_Dcsreas_04"
            }
          ],
          "rawValue": "8",
          "formattedValue": "8"
        },
        {
          "operationId": "Mth_03_02_%",
          "resultGroups": [
            {
              "groupingId": "AnlsGrouping_07_Trt01An",
              "groupId": "AnlsGrouping_07_Trt01An_02"
            },
            {
              "groupingId": "AnlsGrouping_13_Dcsreas",
              "groupId": "AnlsGrouping_13_Dcsreas_04"
            }
          ],
          "rawValue": "9.5238095238",
          "formattedValue": "(9.5)"
        },
        {
          "operationId": "Mth_03_01_n",
          "resultGroups": [
            {
              "groupingId": "AnlsGrouping_07_Trt01An",
              "groupId": "AnlsGrouping_07_Trt01An_02"
            },
            {
              "groupingId": "AnlsGrouping_13_Dcsreas",
              "groupId": "AnlsGrouping_13_Dcsreas_05"
            }
          ],
          "rawValue": "3",
          "formattedValue": "3"
        },
        {
          "operationId": "Mth_03_02_%",
          "resultGroups": [
            {
              "groupingId": "AnlsGrouping_07_Trt01An",
              "groupId": "AnlsGrouping_07_Trt01An_02"
            },
            {
              "groupingId": "AnlsGrouping_13_Dcsreas",
              "groupId": "AnlsGrouping_13_Dcsreas_05"
            }
          ],
          "rawValue": "3.5714285714",
          "formattedValue": "(3.6)"
        },
        {
          "operationId": "Mth_03_01_n",
          "resultGroups": [
            {
              "groupingId": "AnlsGrouping_07_Trt01An",
              "groupId": "AnlsGrouping_07_Trt01An_02"
            },
            {
              "groupingId": "AnlsGrouping_13_Dcsreas",
              "groupId": "AnlsGrouping_13_Dcsreas_06"
            }
          ],
          "rawValue": "3",
          "formattedValue": "3"
        },
        {
          "operationId": "Mth_03_02_%",
          "resultGroups": [
            {
              "groupingId": "AnlsGrouping_07_Trt01An",
              "groupId": "AnlsGrouping_07_Trt01An_02"
            },
            {
              "groupingId": "AnlsGrouping_13_Dcsreas",
              "groupId": "AnlsGrouping_13_Dcsreas_06"
            }
          ],
          "rawValue": "3.5714285714",
          "formattedValue": "(3.6)"
        },
        {
          "operationId": "Mth_03_01_n",
          "resultGroups": [
            {
              "groupingId": "AnlsGrouping_07_Trt01An",
              "groupId": "AnlsGrouping_07_Trt01An_02"
            },
            {
              "groupingId": "AnlsGrouping_13_Dcsreas",
              "groupId": "AnlsGrouping_13_Dcsreas_07"
            }
          ],
          "rawValue": "3",
          "formattedValue": "3"
        },
        {
          "operationId": "Mth_03_02_%",
          "resultGroups": [
            {
              "groupingId": "AnlsGrouping_07_Trt01An",
              "groupId": "AnlsGrouping_07_Trt01An_02"
            },
            {
              "groupingId": "AnlsGrouping_13_Dcsreas",
              "groupId": "AnlsGrouping_13_Dcsreas_07"
            }
          ],
          "rawValue": "3.5714285714",
          "formattedValue": "(3.6)"
        },
        {
          "operationId": "Mth_03_01_n",
          "resultGroups": [
            {
              "groupingId": "AnlsGrouping_07_Trt01An",
              "groupId": "AnlsGrouping_07_Trt01An_03"
            },
            {
              "groupingId": "AnlsGrouping_13_Dcsreas",
              "groupId": "AnlsGrouping_13_Dcsreas_01"
            }
          ],
          "rawValue": "8",
          "formattedValue": "8"
        },
        {
          "operationId": "Mth_03_02_%",
          "resultGroups": [
            {
              "groupingId": "AnlsGrouping_07_Trt01An",
              "groupId": "AnlsGrouping_07_Trt01An_03"
            },
            {
              "groupingId": "AnlsGrouping_13_Dcsreas",
              "groupId": "AnlsGrouping_13_Dcsreas_01"
            }
          ],
          "rawValue": "9.3023255814",
          "formattedValue": "(9.3)"
        },
        {
          "operationId": "Mth_03_01_n",
          "resultGroups": [
            {
              "groupingId": "AnlsGrouping_07_Trt01An",
              "groupId": "AnlsGrouping_07_Trt01An_03"
            },
            {
              "groupingId": "AnlsGrouping_13_Dcsreas",
              "groupId": "AnlsGrouping_13_Dcsreas_02"
            }
          ],
          "rawValue": "2",
          "formattedValue": "2"
        },
        {
          "operationId": "Mth_03_02_%",
          "resultGroups": [
            {
              "groupingId": "AnlsGrouping_07_Trt01An",
              "groupId": "AnlsGrouping_07_Trt01An_03"
            },
            {
              "groupingId": "AnlsGrouping_13_Dcsreas",
              "groupId": "AnlsGrouping_13_Dcsreas_02"
            }
          ],
          "rawValue": "2.3255813953",
          "formattedValue": "(2.3)"
        },
        {
          "operationId": "Mth_03_01_n",
          "resultGroups": [
            {
              "groupingId": "AnlsGrouping_07_Trt01An",
              "groupId": "AnlsGrouping_07_Trt01An_03"
            },
            {
              "groupingId": "AnlsGrouping_13_Dcsreas",
              "groupId": "AnlsGrouping_13_Dcsreas_03"
            }
          ],
          "rawValue": "1",
          "formattedValue": "1"
        },
        {
          "operationId": "Mth_03_02_%",
          "resultGroups": [
            {
              "groupingId": "AnlsGrouping_07_Trt01An",
              "groupId": "AnlsGrouping_07_Trt01An_03"
            },
            {
              "groupingId": "AnlsGrouping_13_Dcsreas",
              "groupId": "AnlsGrouping_13_Dcsreas_03"
            }
          ],
          "rawValue": "1.1627906977",
          "formattedValue": "(1.2)"
        },
        {
          "operationId": "Mth_03_01_n",
          "resultGroups": [
            {
              "groupingId": "AnlsGrouping_07_Trt01An",
              "groupId": "AnlsGrouping_07_Trt01An_03"
            },
            {
              "groupingId": "AnlsGrouping_13_Dcsreas",
              "groupId": "AnlsGrouping_13_Dcsreas_04"
            }
          ],
          "rawValue": "9",
          "formattedValue": "9"
        },
        {
          "operationId": "Mth_03_02_%",
          "resultGroups": [
            {
              "groupingId": "AnlsGrouping_07_Trt01An",
              "groupId": "AnlsGrouping_07_Trt01An_03"
            },
            {
              "groupingId": "AnlsGrouping_13_Dcsreas",
              "groupId": "AnlsGrouping_13_Dcsreas_04"
            }
          ],
          "rawValue": "10.465116279",
          "formattedValue": "(10.5)"
        },
        {
          "operationId": "Mth_03_01_n",
          "resultGroups": [
            {
              "groupingId": "AnlsGrouping_07_Trt01An",
              "groupId": "AnlsGrouping_07_Trt01An_03"
            },
            {
              "groupingId": "AnlsGrouping_13_Dcsreas",
              "groupId": "AnlsGrouping_13_Dcsreas_05"
            }
          ],
          "rawValue": "4",
          "formattedValue": "4"
        },
        {
          "operationId": "Mth_03_02_%",
          "resultGroups": [
            {
              "groupingId": "AnlsGrouping_07_Trt01An",
              "groupId": "AnlsGrouping_07_Trt01An_03"
            },
            {
              "groupingId": "AnlsGrouping_13_Dcsreas",
              "groupId": "AnlsGrouping_13_Dcsreas_05"
            }
          ],
          "rawValue": "4.6511627907",
          "formattedValue": "(4.7)"
        },
        {
          "operationId": "Mth_03_01_n",
          "resultGroups": [
            {
              "groupingId": "AnlsGrouping_07_Trt01An",
              "groupId": "AnlsGrouping_07_Trt01An_03"
            },
            {
              "groupingId": "AnlsGrouping_13_Dcsreas",
              "groupId": "AnlsGrouping_13_Dcsreas_06"
            }
          ],
          "rawValue": "2",
          "formattedValue": "2"
        },
        {
          "operationId": "Mth_03_02_%",
          "resultGroups": [
            {
              "groupingId": "AnlsGrouping_07_Trt01An",
              "groupId": "AnlsGrouping_07_Trt01An_03"
            },
            {
              "groupingId": "AnlsGrouping_13_Dcsreas",
              "groupId": "AnlsGrouping_13_Dcsreas_06"
            }
          ],
          "rawValue": "2.3255813953",
          "formattedValue": "(2.3)"
        },
        {
          "operationId": "Mth_03_01_n",
          "resultGroups": [
            {
              "groupingId": "AnlsGrouping_07_Trt01An",
              "groupId": "AnlsGrouping_07_Trt01An_03"
            },
            {
              "groupingId": "AnlsGrouping_13_Dcsreas",
              "groupId": "AnlsGrouping_13_Dcsreas_07"
            }
          ],
          "rawValue": "2",
          "formattedValue": "2"
        },
        {
          "operationId": "Mth_03_02_%",
          "resultGroups": [
            {
              "groupingId": "AnlsGrouping_07_Trt01An",
              "groupId": "AnlsGrouping_07_Trt01An_03"
            },
            {
              "groupingId": "AnlsGrouping_13_Dcsreas",
              "groupId": "AnlsGrouping_13_Dcsreas_07"
            }
          ],
          "rawValue": "2.3255813953",
          "formattedValue": "(2.3)"
        }
      ]
    },
    {
      "name": "Comparison of subjects who discontinued study by Reason for Discontinuation from Study, Xanomeline Low Dose vs Placebo",
      "id": "An_24_2",
      "reason": {
        "controlledTerm": "SPECIFIED IN SAP"
      },
      "purpose": {
        "sponsorTermId": "TermEx01_01"
      },
      "methodId": "Mth_03_1",
      "version": 1,
      "categoryIds": [
        "ANSET_01",
        "ANSET_01_ANINT_02"
      ],
      "dataset": "ADSL",
      "variable": "USUBJID",
      "analysisSetId": "AnalysisSet_03",
      "dataSubsetId": "Dss_42",
      "orderedGroupings": [
        {
          "order": 1,
          "groupingId": "AnlsGrouping_07_Trt01An",
          "resultsByGroup": false
        },
        {
          "order": 2,
          "groupingId": "AnlsGrouping_13_Dcsreas",
          "resultsByGroup": true
        }
      ],
      "results": [
        {
          "operationId": "Mth_03_1_01_Risk_Difference_%",
          "resultGroups": [
            {
              "groupingId": "AnlsGrouping_07_Trt01An"
            },
            {
              "groupingId": "AnlsGrouping_13_Dcsreas",
              "groupId": "AnlsGrouping_13_Dcsreas_01"
            }
          ],
          "rawValue": "43.0786268",
          "formattedValue": "43.1"
        },
        {
          "operationId": "Mth_03_1_02_95%_CI_Low",
          "resultGroups": [
            {
              "groupingId": "AnlsGrouping_07_Trt01An"
            },
            {
              "groupingId": "AnlsGrouping_13_Dcsreas",
              "groupId": "AnlsGrouping_13_Dcsreas_01"
            }
          ],
          "rawValue": "30.759457775",
          "formattedValue": "30.8"
        },
        {
          "operationId": "Mth_03_1_03_95%_CI_High",
          "resultGroups": [
            {
              "groupingId": "AnlsGrouping_07_Trt01An"
            },
            {
              "groupingId": "AnlsGrouping_13_Dcsreas",
              "groupId": "AnlsGrouping_13_Dcsreas_01"
            }
          ],
          "rawValue": "55.397795824",
          "formattedValue": "55.4"
        },
        {
          "operationId": "Mth_03_1_01_Risk_Difference_%",
          "resultGroups": [
            {
              "groupingId": "AnlsGrouping_07_Trt01An"
            },
            {
              "groupingId": "AnlsGrouping_13_Dcsreas",
              "groupId": "AnlsGrouping_13_Dcsreas_02"
            }
          ],
          "rawValue": "-1.135105205",
          "formattedValue": "-1.1"
        },
        {
          "operationId": "Mth_03_1_02_95%_CI_Low",
          "resultGroups": [
            {
              "groupingId": "AnlsGrouping_07_Trt01An"
            },
            {
              "groupingId": "AnlsGrouping_13_Dcsreas",
              "groupId": "AnlsGrouping_13_Dcsreas_02"
            }
          ],
          "rawValue": "-5.075455297",
          "formattedValue": "-5.1"
        },
        {
          "operationId": "Mth_03_1_03_95%_CI_High",
          "resultGroups": [
            {
              "groupingId": "AnlsGrouping_07_Trt01An"
            },
            {
              "groupingId": "AnlsGrouping_13_Dcsreas",
              "groupId": "AnlsGrouping_13_Dcsreas_02"
            }
          ],
          "rawValue": "2.8052448872",
          "formattedValue": "2.8"
        },
        {
          "operationId": "Mth_03_1_01_Risk_Difference_%",
          "resultGroups": [
            {
              "groupingId": "AnlsGrouping_07_Trt01An"
            },
            {
              "groupingId": "AnlsGrouping_13_Dcsreas",
              "groupId": "AnlsGrouping_13_Dcsreas_03"
            }
          ],
          "rawValue": "0.0276854928",
          "formattedValue": "0.0"
        },
        {
          "operationId": "Mth_03_1_02_95%_CI_Low",
          "resultGroups": [
            {
              "groupingId": "AnlsGrouping_07_Trt01An"
            },
            {
              "groupingId": "AnlsGrouping_13_Dcsreas",
              "groupId": "AnlsGrouping_13_Dcsreas_03"
            }
          ],
          "rawValue": "-3.214750542",
          "formattedValue": "-3.2"
        },
        {
          "operationId": "Mth_03_1_03_95%_CI_High",
          "resultGroups": [
            {
              "groupingId": "AnlsGrouping_07_Trt01An"
            },
            {
              "groupingId": "AnlsGrouping_13_Dcsreas",
              "groupId": "AnlsGrouping_13_Dcsreas_03"
            }
          ],
          "rawValue": "3.2701215271",
          "formattedValue": "3.3"
        },
        {
          "operationId": "Mth_03_1_01_Risk_Difference_%",
          "resultGroups": [
            {
              "groupingId": "AnlsGrouping_07_Trt01An"
            },
            {
              "groupingId": "AnlsGrouping_13_Dcsreas",
              "groupId": "AnlsGrouping_13_Dcsreas_04"
            }
          ],
          "rawValue": "1.4396456257",
          "formattedValue": "1.4"
        },
        {
          "operationId": "Mth_03_1_02_95%_CI_Low",
          "resultGroups": [
            {
              "groupingId": "AnlsGrouping_07_Trt01An"
            },
            {
              "groupingId": "AnlsGrouping_13_Dcsreas",
              "groupId": "AnlsGrouping_13_Dcsreas_04"
            }
          ],
          "rawValue": "-8.037601917",
          "formattedValue": "-8.0"
        },
        {
          "operationId": "Mth_03_1_03_95%_CI_High",
          "resultGroups": [
            {
              "groupingId": "AnlsGrouping_07_Trt01An"
            },
            {
              "groupingId": "AnlsGrouping_13_Dcsreas",
              "groupId": "AnlsGrouping_13_Dcsreas_04"
            }
          ],
          "rawValue": "10.916893169",
          "formattedValue": "10.9"
        },
        {
          "operationId": "Mth_03_1_01_Risk_Difference_%",
          "resultGroups": [
            {
              "groupingId": "AnlsGrouping_07_Trt01An"
            },
            {
              "groupingId": "AnlsGrouping_13_Dcsreas",
              "groupId": "AnlsGrouping_13_Dcsreas_05"
            }
          ],
          "rawValue": "-4.651162791",
          "formattedValue": "-4.7"
        },
        {
          "operationId": "Mth_03_1_02_95%_CI_Low",
          "resultGroups": [
            {
              "groupingId": "AnlsGrouping_07_Trt01An"
            },
            {
              "groupingId": "AnlsGrouping_13_Dcsreas",
              "groupId": "AnlsGrouping_13_Dcsreas_05"
            }
          ],
          "rawValue": "-9.102036958",
          "formattedValue": "-9.1"
        },
        {
          "operationId": "Mth_03_1_03_95%_CI_High",
          "resultGroups": [
            {
              "groupingId": "AnlsGrouping_07_Trt01An"
            },
            {
              "groupingId": "AnlsGrouping_13_Dcsreas",
              "groupId": "AnlsGrouping_13_Dcsreas_05"
            }
          ],
          "rawValue": "-0.200288623",
          "formattedValue": "-0.2"
        },
        {
          "operationId": "Mth_03_1_01_Risk_Difference_%",
          "resultGroups": [
            {
              "groupingId": "AnlsGrouping_07_Trt01An"
            },
            {
              "groupingId": "AnlsGrouping_13_Dcsreas",
              "groupId": "AnlsGrouping_13_Dcsreas_06"
            }
          ],
          "rawValue": "-1.135105205",
          "formattedValue": "-1.1"
        },
        {
          "operationId": "Mth_03_1_02_95%_CI_Low",
          "resultGroups": [
            {
              "groupingId": "AnlsGrouping_07_Trt01An"
            },
            {
              "groupingId": "AnlsGrouping_13_Dcsreas",
              "groupId": "AnlsGrouping_13_Dcsreas_06"
            }
          ],
          "rawValue": "-5.075455297",
          "formattedValue": "-5.1"
        },
        {
          "operationId": "Mth_03_1_03_95%_CI_High",
          "resultGroups": [
            {
              "groupingId": "AnlsGrouping_07_Trt01An"
            },
            {
              "groupingId": "AnlsGrouping_13_Dcsreas",
              "groupId": "AnlsGrouping_13_Dcsreas_06"
            }
          ],
          "rawValue": "2.8052448872",
          "formattedValue": "2.8"
        },
        {
          "operationId": "Mth_03_1_01_Risk_Difference_%",
          "resultGroups": [
            {
              "groupingId": "AnlsGrouping_07_Trt01An"
            },
            {
              "groupingId": "AnlsGrouping_13_Dcsreas",
              "groupId": "AnlsGrouping_13_Dcsreas_07"
            }
          ],
          "rawValue": "0.0553709856",
          "formattedValue": "0.1"
        },
        {
          "operationId": "Mth_03_1_02_95%_CI_Low",
          "resultGroups": [
            {
              "groupingId": "AnlsGrouping_07_Trt01An"
            },
            {
              "groupingId": "AnlsGrouping_13_Dcsreas",
              "groupId": "AnlsGrouping_13_Dcsreas_07"
            }
          ],
          "rawValue": "-4.502738145",
          "formattedValue": "-4.5"
        },
        {
          "operationId": "Mth_03_1_03_95%_CI_High",
          "resultGroups": [
            {
              "groupingId": "AnlsGrouping_07_Trt01An"
            },
            {
              "groupingId": "AnlsGrouping_13_Dcsreas",
              "groupId": "AnlsGrouping_13_Dcsreas_07"
            }
          ],
          "rawValue": "4.6134801164",
          "formattedValue": "4.6"
        }
      ]
    },
    {
      "name": "Comparison of subjects who discontinued study by Reason for Discontinuation from Study, Xanomeline High Dose vs Placebo",
      "id": "An_24_3",
      "reason": {
        "controlledTerm": "SPECIFIED IN SAP"
      },
      "purpose": {
        "sponsorTermId": "TermEx01_01"
      },
      "methodId": "Mth_03_1",
      "version": 1,
      "categoryIds": [
        "ANSET_01",
        "ANSET_01_ANINT_02"
      ],
      "dataset": "ADSL",
      "variable": "USUBJID",
      "analysisSetId": "AnalysisSet_03",
      "dataSubsetId": "Dss_43",
      "orderedGroupings": [
        {
          "order": 1,
          "groupingId": "AnlsGrouping_07_Trt01An",
          "resultsByGroup": false
        },
        {
          "order": 2,
          "groupingId": "AnlsGrouping_13_Dcsreas",
          "resultsByGroup": true
        }
      ],
      "results": [
        {
          "operationId": "Mth_03_1_01_Risk_Difference_%",
          "resultGroups": [
            {
              "groupingId": "AnlsGrouping_07_Trt01An"
            },
            {
              "groupingId": "AnlsGrouping_13_Dcsreas",
              "groupId": "AnlsGrouping_13_Dcsreas_01"
            }
          ],
          "rawValue": "38.316722038",
          "formattedValue": "38.3"
        },
        {
          "operationId": "Mth_03_1_02_95%_CI_Low",
          "resultGroups": [
            {
              "groupingId": "AnlsGrouping_07_Trt01An"
            },
            {
              "groupingId": "AnlsGrouping_13_Dcsreas",
              "groupId": "AnlsGrouping_13_Dcsreas_01"
            }
          ],
          "rawValue": "25.997553013",
          "formattedValue": "26.0"
        },
        {
          "operationId": "Mth_03_1_03_95%_CI_High",
          "resultGroups": [
            {
              "groupingId": "AnlsGrouping_07_Trt01An"
            },
            {
              "groupingId": "AnlsGrouping_13_Dcsreas",
              "groupId": "AnlsGrouping_13_Dcsreas_01"
            }
          ],
          "rawValue": "50.635891062",
          "formattedValue": "50.6"
        },
        {
          "operationId": "Mth_03_1_01_Risk_Difference_%",
          "resultGroups": [
            {
              "groupingId": "AnlsGrouping_07_Trt01An"
            },
            {
              "groupingId": "AnlsGrouping_13_Dcsreas",
              "groupId": "AnlsGrouping_13_Dcsreas_02"
            }
          ],
          "rawValue": "-2.325581395",
          "formattedValue": "-2.3"
        },
        {
          "operationId": "Mth_03_1_02_95%_CI_Low",
          "resultGroups": [
            {
              "groupingId": "AnlsGrouping_07_Trt01An"
            },
            {
              "groupingId": "AnlsGrouping_13_Dcsreas",
              "groupId": "AnlsGrouping_13_Dcsreas_02"
            }
          ],
          "rawValue": "-5.510974498",
          "formattedValue": "-5.5"
        },
        {
          "operationId": "Mth_03_1_03_95%_CI_High",
          "resultGroups": [
            {
              "groupingId": "AnlsGrouping_07_Trt01An"
            },
            {
              "groupingId": "AnlsGrouping_13_Dcsreas",
              "groupId": "AnlsGrouping_13_Dcsreas_02"
            }
          ],
          "rawValue": "0.8598117074",
          "formattedValue": "0.9"
        },
        {
          "operationId": "Mth_03_1_01_Risk_Difference_%",
          "resultGroups": [
            {
              "groupingId": "AnlsGrouping_07_Trt01An"
            },
            {
              "groupingId": "AnlsGrouping_13_Dcsreas",
              "groupId": "AnlsGrouping_13_Dcsreas_03"
            }
          ],
          "rawValue": "-1.162790698",
          "formattedValue": "-1.2"
        },
        {
          "operationId": "Mth_03_1_02_95%_CI_Low",
          "resultGroups": [
            {
              "groupingId": "AnlsGrouping_07_Trt01An"
            },
            {
              "groupingId": "AnlsGrouping_13_Dcsreas",
              "groupId": "AnlsGrouping_13_Dcsreas_03"
            }
          ],
          "rawValue": "-3.428571315",
          "formattedValue": "-3.4"
        },
        {
          "operationId": "Mth_03_1_03_95%_CI_High",
          "resultGroups": [
            {
              "groupingId": "AnlsGrouping_07_Trt01An"
            },
            {
              "groupingId": "AnlsGrouping_13_Dcsreas",
              "groupId": "AnlsGrouping_13_Dcsreas_03"
            }
          ],
          "rawValue": "1.1029899199",
          "formattedValue": "1.1"
        },
        {
          "operationId": "Mth_03_1_01_Risk_Difference_%",
          "resultGroups": [
            {
              "groupingId": "AnlsGrouping_07_Trt01An"
            },
            {
              "groupingId": "AnlsGrouping_13_Dcsreas",
              "groupId": "AnlsGrouping_13_Dcsreas_04"
            }
          ],
          "rawValue": "-0.941306755",
          "formattedValue": "-0.9"
        },
        {
          "operationId": "Mth_03_1_02_95%_CI_Low",
          "resultGroups": [
            {
              "groupingId": "AnlsGrouping_07_Trt01An"
            },
            {
              "groupingId": "AnlsGrouping_13_Dcsreas",
              "groupId": "AnlsGrouping_13_Dcsreas_04"
            }
          ],
          "rawValue": "-9.955887468",
          "formattedValue": "-10.0"
        },
        {
          "operationId": "Mth_03_1_03_95%_CI_High",
          "resultGroups": [
            {
              "groupingId": "AnlsGrouping_07_Trt01An"
            },
            {
              "groupingId": "AnlsGrouping_13_Dcsreas",
              "groupId": "AnlsGrouping_13_Dcsreas_04"
            }
          ],
          "rawValue": "8.073273958",
          "formattedValue": "8.1"
        },
        {
          "operationId": "Mth_03_1_01_Risk_Difference_%",
          "resultGroups": [
            {
              "groupingId": "AnlsGrouping_07_Trt01An"
            },
            {
              "groupingId": "AnlsGrouping_13_Dcsreas",
              "groupId": "AnlsGrouping_13_Dcsreas_05"
            }
          ],
          "rawValue": "-1.079734219",
          "formattedValue": "-1.1"
        },
        {
          "operationId": "Mth_03_1_02_95%_CI_Low",
          "resultGroups": [
            {
              "groupingId": "AnlsGrouping_07_Trt01An"
            },
            {
              "groupingId": "AnlsGrouping_13_Dcsreas",
              "groupId": "AnlsGrouping_13_Dcsreas_05"
            }
          ],
          "rawValue": "-7.042978375",
          "formattedValue": "-7.0"
        },
        {
          "operationId": "Mth_03_1_03_95%_CI_High",
          "resultGroups": [
            {
              "groupingId": "AnlsGrouping_07_Trt01An"
            },
            {
              "groupingId": "AnlsGrouping_13_Dcsreas",
              "groupId": "AnlsGrouping_13_Dcsreas_05"
            }
          ],
          "rawValue": "4.883509936",
          "formattedValue": "4.9"
        },
        {
          "operationId": "Mth_03_1_01_Risk_Difference_%",
          "resultGroups": [
            {
              "groupingId": "AnlsGrouping_07_Trt01An"
            },
            {
              "groupingId": "AnlsGrouping_13_Dcsreas",
              "groupId": "AnlsGrouping_13_Dcsreas_06"
            }
          ],
          "rawValue": "1.2458471761",
          "formattedValue": "1.2"
        },
        {
          "operationId": "Mth_03_1_02_95%_CI_Low",
          "resultGroups": [
            {
              "groupingId": "AnlsGrouping_07_Trt01An"
            },
            {
              "groupingId": "AnlsGrouping_13_Dcsreas",
              "groupId": "AnlsGrouping_13_Dcsreas_06"
            }
          ],
          "rawValue": "-3.843035729",
          "formattedValue": "-3.8"
        },
        {
          "operationId": "Mth_03_1_03_95%_CI_High",
          "resultGroups": [
            {
              "groupingId": "AnlsGrouping_07_Trt01An"
            },
            {
              "groupingId": "AnlsGrouping_13_Dcsreas",
              "groupId": "AnlsGrouping_13_Dcsreas_06"
            }
          ],
          "rawValue": "6.3347300809",
          "formattedValue": "6.3"
        },
        {
          "operationId": "Mth_03_1_01_Risk_Difference_%",
          "resultGroups": [
            {
              "groupingId": "AnlsGrouping_07_Trt01An"
            },
            {
              "groupingId": "AnlsGrouping_13_Dcsreas",
              "groupId": "AnlsGrouping_13_Dcsreas_07"
            }
          ],
          "rawValue": "1.2458471761",
          "formattedValue": "1.2"
        },
        {
          "operationId": "Mth_03_1_02_95%_CI_Low",
          "resultGroups": [
            {
              "groupingId": "AnlsGrouping_07_Trt01An"
            },
            {
              "groupingId": "AnlsGrouping_13_Dcsreas",
              "groupId": "AnlsGrouping_13_Dcsreas_07"
            }
          ],
          "rawValue": "-3.843035729",
          "formattedValue": "-3.8"
        },
        {
          "operationId": "Mth_03_1_03_95%_CI_High",
          "resultGroups": [
            {
              "groupingId": "AnlsGrouping_07_Trt01An"
            },
            {
              "groupingId": "AnlsGrouping_13_Dcsreas",
              "groupId": "AnlsGrouping_13_Dcsreas_07"
            }
          ],
          "rawValue": "6.3347300809",
          "formattedValue": "6.3"
        }
      ]
    }
  ],
  "globalDisplaySections": [
    {
      "sectionType": "Header",
      "subSections": [
        {
          "id": "GlobalDisp_Header_01",
          "text": "CDISC - eTFL Portal"
        },
        {
          "id": "GlobalDisp_Header_02",
          "text": "Generated using TFL Designer (Community, v1.0)"
        },
        {
          "id": "GlobalDisp_Header_03",
          "text": "Page x of y"
        }
      ]
    }
  ],
  "outputs": [
    {
      "name": "Subject Disposition",
      "id": "Out_02",
      "displays": [
        {
          "order": 1,
          "display": {
            "name": "=B3",
            "id": "Disp_02",
            "version": 1,
            "displayTitle": "=F3",
            "displaySections": [
              {
                "sectionType": "Header",
                "orderedSubSections": [
                  {
                    "order": 1,
                    "subSectionId": "GlobalDisp_Header_01"
                  },
                  {
                    "order": 2,
                    "subSectionId": "GlobalDisp_Header_02"
                  },
                  {
                    "order": 3,
                    "subSectionId": "GlobalDisp_Header_03"
                  }
                ]
              },
              {
                "sectionType": "Title",
                "orderedSubSections": [
                  {
                    "order": 1,
                    "subSection": {
                      "id": "Disp_02_Title_01",
                      "text": "FDA-DS-T04"
                    }
                  },
                  {
                    "order": 2,
                    "subSection": {
                      "id": "Disp_02_Title_02",
                      "text": "Subject Disposition"
                    }
                  },
                  {
                    "order": 3,
                    "subSection": {
                      "id": "Disp_02_Title_03",
                      "text": "All Subjects"
                    }
                  }
                ]
              },
              {
                "sectionType": "Footnote",
                "orderedSubSections": [
                  {
                    "order": 1,
                    "subSection": {
                      "id": "Disp_02_Footnote_01",
                      "text": "Source: ADSL; Program name: fda-ds-t04.sas;"
                    }
                  },
                  {
                    "order": 2,
                    "subSection": {
                      "id": "Disp_02_Footnote_02",
                      "text": "Abbreviations: CI, confidence interval; ITT, intention-to-treat; N, number of subjects in treatment arm; n, number of subjects in specified population or group."
                    }
                  },
                  {
                    "order": 3,
                    "subSection": {
                      "id": "Disp_02_Footnote_03",
                      "text": "[1] Difference is shown between Xanomeline Low Dose vs. Placebo."
                    }
                  },
                  {
                    "order": 4,
                    "subSection": {
                      "id": "Disp_02_Footnote_04",
                      "text": "[2] Difference is shown between Xanomeline High Dose vs. Placebo."
                    }
                  },
                  {
                    "order": 5,
                    "subSection": {
                      "id": "Disp_02_Footnote_05",
                      "text": "[3] ITT population include all subjects randomized to a treatment arm."
                    }
                  },
                  {
                    "order": 6,
                    "subSection": {
                      "id": "Disp_02_Footnote_06",
                      "text": "[4] Safety population include all subjects who received at least one dose of the study drug."
                    }
                  },
                  {
                    "order": 7,
                    "subSection": {
                      "id": "Disp_02_Footnote_07",
                      "text": "[5] Per-protocol population include only those subjects who completed the treatment originally allocated and planned without major protocol violations."
                    }
                  },
                  {
                    "order": 8,
                    "subSection": {
                      "id": "Disp_02_Footnote_08",
                      "text": "[6] Percentages are based on Safety population."
                    }
                  }
                ]
              }
            ]
          }
        }
      ],
      "version": 1,
      "categoryIds": [
        "ANSET_01",
        "ANSET_01_ANINT_02"
      ]
    }
  ],
  "@type": "ReportingEvent"
}