{
  "name": "Deaths",
  "id": "FDA-AE-T07",
  "mainListOfContents": {
    "name": "List of Planned Analyses",
    "label": "LOPA",
    "contentsList": {
      "listItems": [
        {
          "name": "Deaths",
          "level": 1,
          "order": 1,
          "outputId": "Out_08",
          "sublist": {
            "listItems": [
              {
                "name": "    Summary of Subjects by Treatment",
                "level": 2,
                "order": 1,
                "analysisId": "An_72"
              },
              {
                "name": "    Total Deaths",
                "level": 2,
                "order": 2,
                "sublist": {
                  "listItems": [
                    {
                      "name": "        Summary of Total Deaths by Treatment ",
                      "level": 3,
                      "order": 1,
                      "analysisId": "An_73"
                    },
                    {
                      "name": "        Cause of death {alphabetical order}",
                      "level": 3,
                      "order": 2,
                      "sublist": {
                        "listItems": [
                          {
                            "name": "            Summary of Total Deaths by Treatment and Cause of death",
                            "level": 4,
                            "order": 1,
                            "analysisId": "An_74"
                          }
                        ]
                      }
                    }
                  ]
                }
              },
              {
                "name": "    Treatment-emergent deaths [1]",
                "level": 2,
                "order": 3,
                "sublist": {
                  "listItems": [
                    {
                      "name": "        Summary of Treatment-emergent deaths by Treatment",
                      "level": 3,
                      "order": 1,
                      "analysisId": "An_75"
                    },
                    {
                      "name": "        Cause of death {alphabetical order}",
                      "level": 3,
                      "order": 2,
                      "sublist": {
                        "listItems": [
                          {
                            "name": "            Summary of Treatment-emergent deaths by Treatment and Cause of death",
                            "level": 4,
                            "order": 1,
                            "analysisId": "An_76"
                          }
                        ]
                      }
                    }
                  ]
                }
              },
              {
                "name": "    Non treatment-emergent deaths [2]",
                "level": 2,
                "order": 4,
                "sublist": {
                  "listItems": [
                    {
                      "name": "        Summary of Non treatment-emergent deaths by Treatment",
                      "level": 3,
                      "order": 1,
                      "analysisId": "An_77"
                    },
                    {
                      "name": "        Cause of death {alphabetical order}",
                      "level": 3,
                      "order": 2,
                      "sublist": {
                        "listItems": [
                          {
                            "name": "            Summary of Non treatment-emergent deaths by Treatment and Cause of death",
                            "level": 4,
                            "order": 1,
                            "analysisId": "An_78"
                          }
                        ]
                      }
                    }
                  ]
                }
              }
            ]
          }
        }
      ]
    }
  },
  "version": 1,
  "otherListsOfContents": [
    {
      "name": "List of Planned Outputs",
      "label": "LOPO",
      "contentsList": {
        "listItems": [
          {
            "name": "Deaths",
            "level": 1,
            "order": 1,
            "outputId": "Out_08"
          }
        ]
      }
    }
  ],
  "terminologyExtensions": [
    {
      "id": "TermEx01",
      "sponsorTerms": [
        {
          "id": "TermEx01_01",
          "submissionValue": "POPULATION SUMMARY",
          "description": "Summary statistics describing the study population(s)."
        }
      ],
      "enumeration": "AnalysisPurposeEnum"
    }
  ],
  "analysisOutputCategorizations": [
    {
      "id": "ANSET",
      "categories": [
        {
          "id": "ANSET_01",
          "label": "Safety",
          "subCategorizations": [
            {
              "id": "ANSET_01_ANINT",
              "categories": [
                {
                  "id": "ANSET_01_ANINT_05",
                  "label": "Adverse Events"
                }
              ],
              "label": "Safety Analysis Of Interest"
            }
          ]
        }
      ],
      "label": "Analysis Sets"
    }
  ],
  "analysisSets": [
    {
      "name": "Safety Population",
      "description": "All patients randomized and known to have taken at least one dose of randomized drug.",
      "id": "AnalysisSet_01",
      "level": 1,
      "order": 1,
      "condition": {
        "dataset": "ADSL",
        "variable": "SAFFL",
        "comparator": "EQ",
        "value": [
          "Y"
        ]
      }
    }
  ],
  "dataSubsets": [
    {
      "name": "Subject died",
      "label": "Total Deaths",
      "id": "Dss_22",
      "level": 1,
      "order": 1,
      "condition": {
        "dataset": "ADSL",
        "variable": "DTHFL",
        "comparator": "EQ",
        "value": [
          "Y"
        ]
      }
    },
    {
      "name": "Subject died and has cause",
      "label": "Total Deaths",
      "id": "Dss_23",
      "level": 1,
      "order": 1,
      "compoundExpression": {
        "logicalOperator": "AND",
        "whereClauses": [
          {
            "level": 2,
            "order": 1,
            "condition": {
              "dataset": "ADSL",
              "variable": "DTHFL",
              "comparator": "EQ",
              "value": [
                "Y"
              ]
            }
          },
          {
            "level": 2,
            "order": 2,
            "condition": {
              "dataset": "ADSL",
              "variable": "DTHCAUS",
              "comparator": "NE"
            }
          }
        ]
      }
    },
    {
      "name": "Treatment-emergent death",
      "label": "Treatment-emergent deaths [1]",
      "id": "Dss_24",
      "level": 1,
      "order": 1,
      "compoundExpression": {
        "logicalOperator": "AND",
        "whereClauses": [
          {
            "level": 2,
            "order": 1,
            "condition": {
              "dataset": "ADSL",
              "variable": "DTHFL",
              "comparator": "EQ",
              "value": [
                "Y"
              ]
            }
          },
          {
            "level": 2,
            "order": 2,
            "condition": {
              "dataset": "ADSL",
              "variable": "DTHCGR1",
              "comparator": "EQ",
              "value": [
                "Treatment-emergent"
              ]
            }
          }
        ]
      }
    },
    {
      "name": "Treatment-emergent death and has cause",
      "label": "Treatment-emergent deaths [1]",
      "id": "Dss_25",
      "level": 1,
      "order": 1,
      "compoundExpression": {
        "logicalOperator": "AND",
        "whereClauses": [
          {
            "level": 2,
            "order": 1,
            "condition": {
              "dataset": "ADSL",
              "variable": "DTHFL",
              "comparator": "EQ",
              "value": [
                "Y"
              ]
            }
          },
          {
            "level": 2,
            "order": 2,
            "condition": {
              "dataset": "ADSL",
              "variable": "DTHCGR1",
              "comparator": "EQ",
              "value": [
                "Treatment-emergent"
              ]
            }
          },
          {
            "level": 2,
            "order": 3,
            "condition": {
              "dataset": "ADSL",
              "variable": "DTHCAUS",
              "comparator": "NE"
            }
          }
        ]
      }
    },
    {
      "name": "Non treatment-emergent death",
      "label": "Non treatment-emergent deaths [2]",
      "id": "Dss_26",
      "level": 1,
      "order": 1,
      "compoundExpression": {
        "logicalOperator": "AND",
        "whereClauses": [
          {
            "level": 2,
            "order": 1,
            "condition": {
              "dataset": "ADSL",
              "variable": "DTHFL",
              "comparator": "EQ",
              "value": [
                "Y"
              ]
            }
          },
          {
            "level": 2,
            "order": 2,
            "condition": {
              "dataset": "ADSL",
              "variable": "DTHCGR1",
              "comparator": "NE",
              "value": [
                "Treatment-emergent"
              ]
            }
          }
        ]
      }
    },
    {
      "name": "Non treatment-emergent death and has cause",
      "label": "Non treatment-emergent deaths [2]",
      "id": "Dss_27",
      "level": 1,
      "order": 1,
      "compoundExpression": {
        "logicalOperator": "AND",
        "whereClauses": [
          {
            "level": 2,
            "order": 1,
            "condition": {
              "dataset": "ADSL",
              "variable": "DTHFL",
              "comparator": "EQ",
              "value": [
                "Y"
              ]
            }
          },
          {
            "level": 2,
            "order": 1,
            "condition": {
              "dataset": "ADSL",
              "variable": "DTHCGR1",
              "comparator": "NE",
              "value": [
                "Treatment-emergent"
              ]
            }
          },
          {
            "level": 2,
            "order": 1,
            "condition": {
              "dataset": "ADSL",
              "variable": "DTHCAUS",
              "comparator": "NE"
            }
          }
        ]
      }
    }
  ],
  "analysisGroupings": [
    {
      "name": "Treatment",
      "id": "AnlsGrouping_38_Trt01An",
      "dataDriven": false,
      "groupingDataset": "ADSL",
      "groupingVariable": "TRT01AN",
      "groups": [
        {
          "name": "Xanomeline Low Dose \n(N=XX)\nn (%)",
          "id": "AnlsGrouping_38_Trt01An_01",
          "level": 1,
          "order": 1,
          "condition": {
            "dataset": "ADSL",
            "variable": "TRT01AN",
            "comparator": "EQ",
            "value": [
              "1"
            ]
          }
        },
        {
          "name": "Xanomeline High Dose \n(N=XX)\nn (%)",
          "id": "AnlsGrouping_38_Trt01An_02",
          "level": 1,
          "order": 2,
          "condition": {
            "dataset": "ADSL",
            "variable": "TRT01AN",
            "comparator": "EQ",
            "value": [
              "2"
            ]
          }
        },
        {
          "name": "Placebo \n(N=XX)\nn (%)",
          "id": "AnlsGrouping_38_Trt01An_03",
          "level": 1,
          "order": 3,
          "condition": {
            "dataset": "ADSL",
            "variable": "TRT01AN",
            "comparator": "EQ",
            "value": [
              "3"
            ]
          }
        }
      ]
    },
    {
      "name": "Cause of Death",
      "label": "Cause of death {alphabetical order}",
      "id": "AnlsGrouping_40_Dthcaus",
      "dataDriven": true,
      "groupingDataset": "ADSL",
      "groupingVariable": "DTHCAUS"
    },
    {
      "name": "Cause of Death",
      "label": "Cause of death {alphabetical order}",
      "id": "AnlsGrouping_42_Dthcaus",
      "dataDriven": true,
      "groupingDataset": "ADSL",
      "groupingVariable": "DTHCAUS"
    },
    {
      "name": "Cause of Death",
      "label": "Cause of death {alphabetical order}",
      "id": "AnlsGrouping_44_Dthcaus",
      "dataDriven": true,
      "groupingDataset": "ADSL",
      "groupingVariable": "DTHCAUS"
    }
  ],
  "methods": [
    {
      "name": "bigN",
      "description": "Grouped summary of categorical variable",
      "label": "Descriptive summary statistics across groups for a categorical variable, based on subject occurrence",
      "id": "Mth_00_1",
      "operations": [
        {
          "name": "n",
          "label": "n",
          "id": "Mth_00_1_01_n",
          "order": 1,
          "resultPattern": "(N=XX)"
        }
      ]
    },
    {
      "name": "Summary by group of a categorical variable",
      "description": "Descriptive summary statistics across groups for a categorical variable, based on subject occurrence",
      "label": "Grouped summary of categorical variable",
      "id": "Mth_03",
      "operations": [
        {
          "name": "n",
          "label": "n",
          "id": "Mth_03_01_n",
          "order": 1,
          "resultPattern": "XX"
        },
        {
          "name": "%",
          "label": "%",
          "id": "Mth_03_02_%",
          "order": 2,
          "referencedOperationRelationships": [
            {
              "id": "Mth_03_pct_NUM",
              "referencedOperationRole": {
                "controlledTerm": "NUMERATOR"
              },
              "operationId": "Mth_03_01_n",
              "description": "The numerator for the calculation of the percentage."
            },
            {
              "id": "Mth_03_pct_DEN",
              "referencedOperationRole": {
                "controlledTerm": "DENOMINATOR"
              },
              "operationId": "Mth_00_1_01_n",
              "description": "The denominator for the calculation of the percentage."
            }
          ],
          "resultPattern": "(XX.X)"
        }
      ]
    }
  ],
  "analyses": [
    {
      "name": "Summary of Subjects by Treatment",
      "id": "An_72",
      "reason": {
        "controlledTerm": "SPECIFIED IN SAP"
      },
      "purpose": {
        "sponsorTermId": "TermEx01_01"
      },
      "methodId": "Mth_00_1",
      "version": 1,
      "categoryIds": [
        "ANSET_01",
        "ANSET_01_ANINT_05"
      ],
      "dataset": "ADSL",
      "variable": "USUBJID",
      "analysisSetId": "AnalysisSet_01",
      "orderedGroupings": [
        {
          "order": 1,
          "groupingId": "AnlsGrouping_38_Trt01An",
          "resultsByGroup": true
        }
      ],
      "results": [
        {
          "operationId": "Mth_00_1_01_n",
          "resultGroups": [
            {
              "groupingId": "AnlsGrouping_38_Trt01An",
              "groupId": "AnlsGrouping_38_Trt01An_01"
            }
          ],
          "rawValue": "84",
          "formattedValue": "(N=84)"
        },
        {
          "operationId": "Mth_00_1_01_n",
          "resultGroups": [
            {
              "groupingId": "AnlsGrouping_38_Trt01An",
              "groupId": "AnlsGrouping_38_Trt01An_02"
            }
          ],
          "rawValue": "84",
          "formattedValue": "(N=84)"
        },
        {
          "operationId": "Mth_00_1_01_n",
          "resultGroups": [
            {
              "groupingId": "AnlsGrouping_38_Trt01An",
              "groupId": "AnlsGrouping_38_Trt01An_03"
            }
          ],
          "rawValue": "86",
          "formattedValue": "(N=86)"
        }
      ]
    },
    {
      "name": "Summary of Total Deaths by Treatment ",
      "id": "An_73",
      "reason": {
        "controlledTerm": "SPECIFIED IN SAP"
      },
      "purpose": {
        "controlledTerm": "PRIMARY OUTCOME MEASURE"
      },
      "methodId": "Mth_03",
      "version": 1,
      "categoryIds": [
        "ANSET_01",
        "ANSET_01_ANINT_05"
      ],
      "dataset": "ADSL",
      "variable": "USUBJID",
      "analysisSetId": "AnalysisSet_01",
      "dataSubsetId": "Dss_22",
      "orderedGroupings": [
        {
          "order": 1,
          "groupingId": "AnlsGrouping_38_Trt01An",
          "resultsByGroup": true
        }
      ],
      "referencedAnalysisOperations": [
        {
          "referencedOperationRelationshipId": "Mth_03_pct_NUM",
          "analysisId": "An_73"
        },
        {
          "referencedOperationRelationshipId": "Mth_03_pct_DEN",
          "analysisId": "An_72"
        }
      ],
      "results": [
        {
          "operationId": "Mth_03_01_n",
          "resultGroups": [
            {
              "groupingId": "AnlsGrouping_38_Trt01An",
              "groupId": "AnlsGrouping_38_Trt01An_01"
            }
          ],
          "rawValue": "1",
          "formattedValue": "1"
        },
        {
          "operationId": "Mth_03_01_n",
          "resultGroups": [
            {
              "groupingId": "AnlsGrouping_38_Trt01An",
              "groupId": "AnlsGrouping_38_Trt01An_02"
            }
          ],
          "rawValue": "0",
          "formattedValue": "0"
        },
        {
          "operationId": "Mth_03_01_n",
          "resultGroups": [
            {
              "groupingId": "AnlsGrouping_38_Trt01An",
              "groupId": "AnlsGrouping_38_Trt01An_03"
            }
          ],
          "rawValue": "2",
          "formattedValue": "2"
        },
        {
          "operationId": "Mth_03_02_%",
          "resultGroups": [
            {
              "groupingId": "AnlsGrouping_38_Trt01An",
              "groupId": "AnlsGrouping_38_Trt01An_01"
            }
          ],
          "rawValue": "1.1904761905",
          "formattedValue": "(1.2)"
        },
        {
          "operationId": "Mth_03_02_%",
          "resultGroups": [
            {
              "groupingId": "AnlsGrouping_38_Trt01An",
              "groupId": "AnlsGrouping_38_Trt01An_02"
            }
          ],
          "rawValue": "0",
          "formattedValue": "(0.0)"
        },
        {
          "operationId": "Mth_03_02_%",
          "resultGroups": [
            {
              "groupingId": "AnlsGrouping_38_Trt01An",
              "groupId": "AnlsGrouping_38_Trt01An_03"
            }
          ],
          "rawValue": "2.3255813953",
          "formattedValue": "(2.3)"
        }
      ]
    },
    {
      "name": "Summary of Total Deaths by Treatment and Cause of death",
      "id": "An_74",
      "reason": {
        "controlledTerm": "SPECIFIED IN SAP"
      },
      "purpose": {
        "controlledTerm": "PRIMARY OUTCOME MEASURE"
      },
      "methodId": "Mth_03",
      "version": 1,
      "categoryIds": [
        "ANSET_01",
        "ANSET_01_ANINT_05"
      ],
      "dataset": "ADSL",
      "variable": "USUBJID",
      "analysisSetId": "AnalysisSet_01",
      "dataSubsetId": "Dss_23",
      "orderedGroupings": [
        {
          "order": 1,
          "groupingId": "AnlsGrouping_38_Trt01An",
          "resultsByGroup": true
        },
        {
          "order": 2,
          "groupingId": "AnlsGrouping_40_Dthcaus",
          "resultsByGroup": true
        }
      ],
      "referencedAnalysisOperations": [
        {
          "referencedOperationRelationshipId": "Mth_03_pct_NUM",
          "analysisId": "An_74"
        },
        {
          "referencedOperationRelationshipId": "Mth_03_pct_DEN",
          "analysisId": "An_72"
        }
      ],
      "results": [
        {
          "operationId": "Mth_03_01_n",
          "resultGroups": [
            {
              "groupingId": "AnlsGrouping_38_Trt01An",
              "groupId": "AnlsGrouping_38_Trt01An_01"
            },
            {
              "groupingId": "AnlsGrouping_40_Dthcaus",
              "groupValue": "MYOCARDIAL INFARCTION"
            }
          ],
          "rawValue": "0",
          "formattedValue": "0"
        },
        {
          "operationId": "Mth_03_01_n",
          "resultGroups": [
            {
              "groupingId": "AnlsGrouping_38_Trt01An",
              "groupId": "AnlsGrouping_38_Trt01An_01"
            },
            {
              "groupingId": "AnlsGrouping_40_Dthcaus",
              "groupValue": "COMPLETED SUICIDE"
            }
          ],
          "rawValue": "0",
          "formattedValue": "0"
        },
        {
          "operationId": "Mth_03_01_n",
          "resultGroups": [
            {
              "groupingId": "AnlsGrouping_38_Trt01An",
              "groupId": "AnlsGrouping_38_Trt01An_01"
            },
            {
              "groupingId": "AnlsGrouping_40_Dthcaus",
              "groupValue": "SUDDEN DEATH"
            }
          ],
          "rawValue": "1",
          "formattedValue": "1"
        },
        {
          "operationId": "Mth_03_01_n",
          "resultGroups": [
            {
              "groupingId": "AnlsGrouping_38_Trt01An",
              "groupId": "AnlsGrouping_38_Trt01An_02"
            },
            {
              "groupingId": "AnlsGrouping_40_Dthcaus",
              "groupValue": "COMPLETED SUICIDE"
            }
          ],
          "rawValue": "0",
          "formattedValue": "0"
        },
        {
          "operationId": "Mth_03_01_n",
          "resultGroups": [
            {
              "groupingId": "AnlsGrouping_38_Trt01An",
              "groupId": "AnlsGrouping_38_Trt01An_02"
            },
            {
              "groupingId": "AnlsGrouping_40_Dthcaus",
              "groupValue": "MYOCARDIAL INFARCTION"
            }
          ],
          "rawValue": "0",
          "formattedValue": "0"
        },
        {
          "operationId": "Mth_03_01_n",
          "resultGroups": [
            {
              "groupingId": "AnlsGrouping_38_Trt01An",
              "groupId": "AnlsGrouping_38_Trt01An_02"
            },
            {
              "groupingId": "AnlsGrouping_40_Dthcaus",
              "groupValue": "SUDDEN DEATH"
            }
          ],
          "rawValue": "0",
          "formattedValue": "0"
        },
        {
          "operationId": "Mth_03_01_n",
          "resultGroups": [
            {
              "groupingId": "AnlsGrouping_38_Trt01An",
              "groupId": "AnlsGrouping_38_Trt01An_03"
            },
            {
              "groupingId": "AnlsGrouping_40_Dthcaus",
              "groupValue": "COMPLETED SUICIDE"
            }
          ],
          "rawValue": "1",
          "formattedValue": "1"
        },
        {
          "operationId": "Mth_03_01_n",
          "resultGroups": [
            {
              "groupingId": "AnlsGrouping_38_Trt01An",
              "groupId": "AnlsGrouping_38_Trt01An_03"
            },
            {
              "groupingId": "AnlsGrouping_40_Dthcaus",
              "groupValue": "MYOCARDIAL INFARCTION"
            }
          ],
          "rawValue": "1",
          "formattedValue": "1"
        },
        {
          "operationId": "Mth_03_01_n",
          "resultGroups": [
            {
              "groupingId": "AnlsGrouping_38_Trt01An",
              "groupId": "AnlsGrouping_38_Trt01An_03"
            },
            {
              "groupingId": "AnlsGrouping_40_Dthcaus",
              "groupValue": "SUDDEN DEATH"
            }
          ],
          "rawValue": "0",
          "formattedValue": "0"
        },
        {
          "operationId": "Mth_03_02_%",
          "resultGroups": [
            {
              "groupingId": "AnlsGrouping_38_Trt01An",
              "groupId": "AnlsGrouping_38_Trt01An_01"
            },
            {
              "groupingId": "AnlsGrouping_40_Dthcaus",
              "groupValue": "MYOCARDIAL INFARCTION"
            }
          ],
          "rawValue": "0",
          "formattedValue": "(0.0)"
        },
        {
          "operationId": "Mth_03_02_%",
          "resultGroups": [
            {
              "groupingId": "AnlsGrouping_38_Trt01An",
              "groupId": "AnlsGrouping_38_Trt01An_01"
            },
            {
              "groupingId": "AnlsGrouping_40_Dthcaus",
              "groupValue": "COMPLETED SUICIDE"
            }
          ],
          "rawValue": "0",
          "formattedValue": "(0.0)"
        },
        {
          "operationId": "Mth_03_02_%",
          "resultGroups": [
            {
              "groupingId": "AnlsGrouping_38_Trt01An",
              "groupId": "AnlsGrouping_38_Trt01An_01"
            },
            {
              "groupingId": "AnlsGrouping_40_Dthcaus",
              "groupValue": "SUDDEN DEATH"
            }
          ],
          "rawValue": "1.1904761905",
          "formattedValue": "(1.2)"
        },
        {
          "operationId": "Mth_03_02_%",
          "resultGroups": [
            {
              "groupingId": "AnlsGrouping_38_Trt01An",
              "groupId": "AnlsGrouping_38_Trt01An_02"
            },
            {
              "groupingId": "AnlsGrouping_40_Dthcaus",
              "groupValue": "COMPLETED SUICIDE"
            }
          ],
          "rawValue": "0",
          "formattedValue": "(0.0)"
        },
        {
          "operationId": "Mth_03_02_%",
          "resultGroups": [
            {
              "groupingId": "AnlsGrouping_38_Trt01An",
              "groupId": "AnlsGrouping_38_Trt01An_02"
            },
            {
              "groupingId": "AnlsGrouping_40_Dthcaus",
              "groupValue": "MYOCARDIAL INFARCTION"
            }
          ],
          "rawValue": "0",
          "formattedValue": "(0.0)"
        },
        {
          "operationId": "Mth_03_02_%",
          "resultGroups": [
            {
              "groupingId": "AnlsGrouping_38_Trt01An",
              "groupId": "AnlsGrouping_38_Trt01An_02"
            },
            {
              "groupingId": "AnlsGrouping_40_Dthcaus",
              "groupValue": "SUDDEN DEATH"
            }
          ],
          "rawValue": "0",
          "formattedValue": "(0.0)"
        },
        {
          "operationId": "Mth_03_02_%",
          "resultGroups": [
            {
              "groupingId": "AnlsGrouping_38_Trt01An",
              "groupId": "AnlsGrouping_38_Trt01An_03"
            },
            {
              "groupingId": "AnlsGrouping_40_Dthcaus",
              "groupValue": "COMPLETED SUICIDE"
            }
          ],
          "rawValue": "1.1627906977",
          "formattedValue": "(1.2)"
        },
        {
          "operationId": "Mth_03_02_%",
          "resultGroups": [
            {
              "groupingId": "AnlsGrouping_38_Trt01An",
              "groupId": "AnlsGrouping_38_Trt01An_03"
            },
            {
              "groupingId": "AnlsGrouping_40_Dthcaus",
              "groupValue": "MYOCARDIAL INFARCTION"
            }
          ],
          "rawValue": "1.1627906977",
          "formattedValue": "(1.2)"
        },
        {
          "operationId": "Mth_03_02_%",
          "resultGroups": [
            {
              "groupingId": "AnlsGrouping_38_Trt01An",
              "groupId": "AnlsGrouping_38_Trt01An_03"
            },
            {
              "groupingId": "AnlsGrouping_40_Dthcaus",
              "groupValue": "SUDDEN DEATH"
            }
          ],
          "rawValue": "0",
          "formattedValue": "(0.0)"
        }
      ]
    },
    {
      "name": "Summary of Treatment-emergent deaths by Treatment",
      "id": "An_75",
      "reason": {
        "controlledTerm": "SPECIFIED IN SAP"
      },
      "purpose": {
        "controlledTerm": "PRIMARY OUTCOME MEASURE"
      },
      "methodId": "Mth_03",
      "version": 1,
      "categoryIds": [
        "ANSET_01",
        "ANSET_01_ANINT_05"
      ],
      "dataset": "ADSL",
      "variable": "USUBJID",
      "analysisSetId": "AnalysisSet_01",
      "dataSubsetId": "Dss_24",
      "orderedGroupings": [
        {
          "order": 1,
          "groupingId": "AnlsGrouping_38_Trt01An",
          "resultsByGroup": true
        }
      ],
      "referencedAnalysisOperations": [
        {
          "referencedOperationRelationshipId": "Mth_03_pct_NUM",
          "analysisId": "An_75"
        },
        {
          "referencedOperationRelationshipId": "Mth_03_pct_DEN",
          "analysisId": "An_72"
        }
      ],
      "results": [
        {
          "operationId": "Mth_03_01_n",
          "resultGroups": [
            {
              "groupingId": "AnlsGrouping_38_Trt01An",
              "groupId": "AnlsGrouping_38_Trt01An_01"
            }
          ],
          "rawValue": "1",
          "formattedValue": "1"
        },
        {
          "operationId": "Mth_03_01_n",
          "resultGroups": [
            {
              "groupingId": "AnlsGrouping_38_Trt01An",
              "groupId": "AnlsGrouping_38_Trt01An_02"
            }
          ],
          "rawValue": "0",
          "formattedValue": "0"
        },
        {
          "operationId": "Mth_03_01_n",
          "resultGroups": [
            {
              "groupingId": "AnlsGrouping_38_Trt01An",
              "groupId": "AnlsGrouping_38_Trt01An_03"
            }
          ],
          "rawValue": "2",
          "formattedValue": "2"
        },
        {
          "operationId": "Mth_03_02_%",
          "resultGroups": [
            {
              "groupingId": "AnlsGrouping_38_Trt01An",
              "groupId": "AnlsGrouping_38_Trt01An_01"
            }
          ],
          "rawValue": "1.1904761905",
          "formattedValue": "(1.2)"
        },
        {
          "operationId": "Mth_03_02_%",
          "resultGroups": [
            {
              "groupingId": "AnlsGrouping_38_Trt01An",
              "groupId": "AnlsGrouping_38_Trt01An_02"
            }
          ],
          "rawValue": "0",
          "formattedValue": "(0.0)"
        },
        {
          "operationId": "Mth_03_02_%",
          "resultGroups": [
            {
              "groupingId": "AnlsGrouping_38_Trt01An",
              "groupId": "AnlsGrouping_38_Trt01An_03"
            }
          ],
          "rawValue": "2.3255813953",
          "formattedValue": "(2.3)"
        }
      ]
    },
    {
      "name": "Summary of Treatment-emergent deaths by Treatment and Cause of death",
      "id": "An_76",
      "reason": {
        "controlledTerm": "SPECIFIED IN SAP"
      },
      "purpose": {
        "controlledTerm": "PRIMARY OUTCOME MEASURE"
      },
      "methodId": "Mth_03",
      "version": 1,
      "categoryIds": [
        "ANSET_01",
        "ANSET_01_ANINT_05"
      ],
      "dataset": "ADSL",
      "variable": "USUBJID",
      "analysisSetId": "AnalysisSet_01",
      "dataSubsetId": "Dss_25",
      "orderedGroupings": [
        {
          "order": 1,
          "groupingId": "AnlsGrouping_38_Trt01An",
          "resultsByGroup": true
        },
        {
          "order": 2,
          "groupingId": "AnlsGrouping_42_Dthcaus",
          "resultsByGroup": true
        }
      ],
      "referencedAnalysisOperations": [
        {
          "referencedOperationRelationshipId": "Mth_03_pct_NUM",
          "analysisId": "An_76"
        },
        {
          "referencedOperationRelationshipId": "Mth_03_pct_DEN",
          "analysisId": "An_72"
        }
      ],
      "results": [
        {
          "operationId": "Mth_03_01_n",
          "resultGroups": [
            {
              "groupingId": "AnlsGrouping_38_Trt01An",
              "groupId": "AnlsGrouping_38_Trt01An_01"
            },
            {
              "groupingId": "AnlsGrouping_42_Dthcaus",
              "groupValue": "MYOCARDIAL INFARCTION"
            }
          ],
          "rawValue": "0",
          "formattedValue": "0"
        },
        {
          "operationId": "Mth_03_01_n",
          "resultGroups": [
            {
              "groupingId": "AnlsGrouping_38_Trt01An",
              "groupId": "AnlsGrouping_38_Trt01An_01"
            },
            {
              "groupingId": "AnlsGrouping_42_Dthcaus",
              "groupValue": "COMPLETED SUICIDE"
            }
          ],
          "rawValue": "0",
          "formattedValue": "0"
        },
        {
          "operationId": "Mth_03_01_n",
          "resultGroups": [
            {
              "groupingId": "AnlsGrouping_38_Trt01An",
              "groupId": "AnlsGrouping_38_Trt01An_01"
            },
            {
              "groupingId": "AnlsGrouping_42_Dthcaus",
              "groupValue": "SUDDEN DEATH"
            }
          ],
          "rawValue": "1",
          "formattedValue": "1"
        },
        {
          "operationId": "Mth_03_01_n",
          "resultGroups": [
            {
              "groupingId": "AnlsGrouping_38_Trt01An",
              "groupId": "AnlsGrouping_38_Trt01An_02"
            },
            {
              "groupingId": "AnlsGrouping_42_Dthcaus",
              "groupValue": "COMPLETED SUICIDE"
            }
          ],
          "rawValue": "0",
          "formattedValue": "0"
        },
        {
          "operationId": "Mth_03_01_n",
          "resultGroups": [
            {
              "groupingId": "AnlsGrouping_38_Trt01An",
              "groupId": "AnlsGrouping_38_Trt01An_02"
            },
            {
              "groupingId": "AnlsGrouping_42_Dthcaus",
              "groupValue": "MYOCARDIAL INFARCTION"
            }
          ],
          "rawValue": "0",
          "formattedValue": "0"
        },
        {
          "operationId": "Mth_03_01_n",
          "resultGroups": [
            {
              "groupingId": "AnlsGrouping_38_Trt01An",
              "groupId": "AnlsGrouping_38_Trt01An_02"
            },
            {
              "groupingId": "AnlsGrouping_42_Dthcaus",
              "groupValue": "SUDDEN DEATH"
            }
          ],
          "rawValue": "0",
          "formattedValue": "0"
        },
        {
          "operationId": "Mth_03_01_n",
          "resultGroups": [
            {
              "groupingId": "AnlsGrouping_38_Trt01An",
              "groupId": "AnlsGrouping_38_Trt01An_03"
            },
            {
              "groupingId": "AnlsGrouping_42_Dthcaus",
              "groupValue": "COMPLETED SUICIDE"
            }
          ],
          "rawValue": "1",
          "formattedValue": "1"
        },
        {
          "operationId": "Mth_03_01_n",
          "resultGroups": [
            {
              "groupingId": "AnlsGrouping_38_Trt01An",
              "groupId": "AnlsGrouping_38_Trt01An_03"
            },
            {
              "groupingId": "AnlsGrouping_42_Dthcaus",
              "groupValue": "MYOCARDIAL INFARCTION"
            }
          ],
          "rawValue": "1",
          "formattedValue": "1"
        },
        {
          "operationId": "Mth_03_01_n",
          "resultGroups": [
            {
              "groupingId": "AnlsGrouping_38_Trt01An",
              "groupId": "AnlsGrouping_38_Trt01An_03"
            },
            {
              "groupingId": "AnlsGrouping_42_Dthcaus",
              "groupValue": "SUDDEN DEATH"
            }
          ],
          "rawValue": "0",
          "formattedValue": "0"
        },
        {
          "operationId": "Mth_03_02_%",
          "resultGroups": [
            {
              "groupingId": "AnlsGrouping_38_Trt01An",
              "groupId": "AnlsGrouping_38_Trt01An_01"
            },
            {
              "groupingId": "AnlsGrouping_42_Dthcaus",
              "groupValue": "MYOCARDIAL INFARCTION"
            }
          ],
          "rawValue": "0",
          "formattedValue": "(0.0)"
        },
        {
          "operationId": "Mth_03_02_%",
          "resultGroups": [
            {
              "groupingId": "AnlsGrouping_38_Trt01An",
              "groupId": "AnlsGrouping_38_Trt01An_01"
            },
            {
              "groupingId": "AnlsGrouping_42_Dthcaus",
              "groupValue": "COMPLETED SUICIDE"
            }
          ],
          "rawValue": "0",
          "formattedValue": "(0.0)"
        },
        {
          "operationId": "Mth_03_02_%",
          "resultGroups": [
            {
              "groupingId": "AnlsGrouping_38_Trt01An",
              "groupId": "AnlsGrouping_38_Trt01An_01"
            },
            {
              "groupingId": "AnlsGrouping_42_Dthcaus",
              "groupValue": "SUDDEN DEATH"
            }
          ],
          "rawValue": "1.1904761905",
          "formattedValue": "(1.2)"
        },
        {
          "operationId": "Mth_03_02_%",
          "resultGroups": [
            {
              "groupingId": "AnlsGrouping_38_Trt01An",
              "groupId": "AnlsGrouping_38_Trt01An_02"
            },
            {
              "groupingId": "AnlsGrouping_42_Dthcaus",
              "groupValue": "COMPLETED SUICIDE"
            }
          ],
          "rawValue": "0",
          "formattedValue": "(0.0)"
        },
        {
          "operationId": "Mth_03_02_%",
          "resultGroups": [
            {
              "groupingId": "AnlsGrouping_38_Trt01An",
              "groupId": "AnlsGrouping_38_Trt01An_02"
            },
            {
              "groupingId": "AnlsGrouping_42_Dthcaus",
              "groupValue": "MYOCARDIAL INFARCTION"
            }
          ],
          "rawValue": "0",
          "formattedValue": "(0.0)"
        },
        {
          "operationId": "Mth_03_02_%",
          "resultGroups": [
            {
              "groupingId": "AnlsGrouping_38_Trt01An",
              "groupId": "AnlsGrouping_38_Trt01An_02"
            },
            {
              "groupingId": "AnlsGrouping_42_Dthcaus",
              "groupValue": "SUDDEN DEATH"
            }
          ],
          "rawValue": "0",
          "formattedValue": "(0.0)"
        },
        {
          "operationId": "Mth_03_02_%",
          "resultGroups": [
            {
              "groupingId": "AnlsGrouping_38_Trt01An",
              "groupId": "AnlsGrouping_38_Trt01An_03"
            },
            {
              "groupingId": "AnlsGrouping_42_Dthcaus",
              "groupValue": "COMPLETED SUICIDE"
            }
          ],
          "rawValue": "1.1627906977",
          "formattedValue": "(1.2)"
        },
        {
          "operationId": "Mth_03_02_%",
          "resultGroups": [
            {
              "groupingId": "AnlsGrouping_38_Trt01An",
              "groupId": "AnlsGrouping_38_Trt01An_03"
            },
            {
              "groupingId": "AnlsGrouping_42_Dthcaus",
              "groupValue": "MYOCARDIAL INFARCTION"
            }
          ],
          "rawValue": "1.1627906977",
          "formattedValue": "(1.2)"
        },
        {
          "operationId": "Mth_03_02_%",
          "resultGroups": [
            {
              "groupingId": "AnlsGrouping_38_Trt01An",
              "groupId": "AnlsGrouping_38_Trt01An_03"
            },
            {
              "groupingId": "AnlsGrouping_42_Dthcaus",
              "groupValue": "SUDDEN DEATH"
            }
          ],
          "rawValue": "0",
          "formattedValue": "(0.0)"
        }
      ]
    },
    {
      "name": "Summary of Non treatment-emergent deaths by Treatment",
      "id": "An_77",
      "reason": {
        "controlledTerm": "SPECIFIED IN SAP"
      },
      "purpose": {
        "controlledTerm": "PRIMARY OUTCOME MEASURE"
      },
      "methodId": "Mth_03",
      "version": 1,
      "categoryIds": [
        "ANSET_01",
        "ANSET_01_ANINT_05"
      ],
      "dataset": "ADSL",
      "variable": "USUBJID",
      "analysisSetId": "AnalysisSet_01",
      "dataSubsetId": "Dss_26",
      "orderedGroupings": [
        {
          "order": 1,
          "groupingId": "AnlsGrouping_38_Trt01An",
          "resultsByGroup": true
        }
      ],
      "referencedAnalysisOperations": [
        {
          "referencedOperationRelationshipId": "Mth_03_pct_NUM",
          "analysisId": "An_77"
        },
        {
          "referencedOperationRelationshipId": "Mth_03_pct_DEN",
          "analysisId": "An_72"
        }
      ],
      "results": [
        {
          "operationId": "Mth_03_01_n",
          "resultGroups": [
            {
              "groupingId": "AnlsGrouping_38_Trt01An",
              "groupId": "AnlsGrouping_38_Trt01An_01"
            }
          ],
          "rawValue": "0",
          "formattedValue": "0"
        },
        {
          "operationId": "Mth_03_01_n",
          "resultGroups": [
            {
              "groupingId": "AnlsGrouping_38_Trt01An",
              "groupId": "AnlsGrouping_38_Trt01An_02"
            }
          ],
          "rawValue": "0",
          "formattedValue": "0"
        },
        {
          "operationId": "Mth_03_01_n",
          "resultGroups": [
            {
              "groupingId": "AnlsGrouping_38_Trt01An",
              "groupId": "AnlsGrouping_38_Trt01An_03"
            }
          ],
          "rawValue": "0",
          "formattedValue": "0"
        },
        {
          "operationId": "Mth_03_02_%",
          "resultGroups": [
            {
              "groupingId": "AnlsGrouping_38_Trt01An",
              "groupId": "AnlsGrouping_38_Trt01An_01"
            }
          ],
          "rawValue": "0",
          "formattedValue": "(0.0)"
        },
        {
          "operationId": "Mth_03_02_%",
          "resultGroups": [
            {
              "groupingId": "AnlsGrouping_38_Trt01An",
              "groupId": "AnlsGrouping_38_Trt01An_02"
            }
          ],
          "rawValue": "0",
          "formattedValue": "(0.0)"
        },
        {
          "operationId": "Mth_03_02_%",
          "resultGroups": [
            {
              "groupingId": "AnlsGrouping_38_Trt01An",
              "groupId": "AnlsGrouping_38_Trt01An_03"
            }
          ],
          "rawValue": "0",
          "formattedValue": "(0.0)"
        }
      ]
    },
    {
      "name": "Summary of Non treatment-emergent deaths by Treatment and Cause of death",
      "id": "An_78",
      "reason": {
        "controlledTerm": "SPECIFIED IN SAP"
      },
      "purpose": {
        "controlledTerm": "PRIMARY OUTCOME MEASURE"
      },
      "methodId": "Mth_03",
      "version": 1,
      "categoryIds": [
        "ANSET_01",
        "ANSET_01_ANINT_05"
      ],
      "dataset": "ADSL",
      "variable": "USUBJID",
      "analysisSetId": "AnalysisSet_01",
      "dataSubsetId": "Dss_27",
      "orderedGroupings": [
        {
          "order": 1,
          "groupingId": "AnlsGrouping_38_Trt01An",
          "resultsByGroup": true
        },
        {
          "order": 2,
          "groupingId": "AnlsGrouping_44_Dthcaus",
          "resultsByGroup": true
        }
      ],
      "referencedAnalysisOperations": [
        {
          "referencedOperationRelationshipId": "Mth_03_pct_NUM",
          "analysisId": "An_78"
        },
        {
          "referencedOperationRelationshipId": "Mth_03_pct_DEN",
          "analysisId": "An_72"
        }
      ]
    }
  ],
  "globalDisplaySections": [
    {
      "sectionType": "Header",
      "subSections": [
        {
          "id": "GlobalDisp_Header_01",
          "text": "CDISC - eTFL Portal"
        },
        {
          "id": "GlobalDisp_Header_02",
          "text": "Generated using TFL Designer (Community, v1.0)"
        },
        {
          "id": "GlobalDisp_Header_03",
          "text": "Page x of y"
        }
      ]
    }
  ],
  "outputs": [
    {
      "name": "Deaths",
      "id": "Out_08",
      "displays": [
        {
          "order": 1,
          "display": {
            "name": "=B3",
            "id": "Disp_08",
            "version": 1,
            "displayTitle": "=F3",
            "displaySections": [
              {
                "sectionType": "Header",
                "orderedSubSections": [
                  {
                    "order": 1,
                    "subSectionId": "GlobalDisp_Header_01"
                  },
                  {
                    "order": 2,
                    "subSectionId": "GlobalDisp_Header_02"
                  },
                  {
                    "order": 3,
                    "subSectionId": "GlobalDisp_Header_03"
                  }
                ]
              },
              {
                "sectionType": "Title",
                "orderedSubSections": [
                  {
                    "order": 1,
                    "subSection": {
                      "id": "Disp_08_Title_01",
                      "text": "FDA-AE-T07"
                    }
                  },
                  {
                    "order": 2,
                    "subSection": {
                      "id": "Disp_08_Title_02",
                      "text": "Deaths"
                    }
                  },
                  {
                    "order": 3,
                    "subSection": {
                      "id": "Disp_08_Title_03",
                      "text": "Safety Population"
                    }
                  }
                ]
              },
              {
                "sectionType": "Footnote",
                "orderedSubSections": [
                  {
                    "order": 1,
                    "subSection": {
                      "id": "Disp_08_Footnote_01",
                      "text": "Source: ADSL; Program name: fda-ae-t07.sas;"
                    }
                  },
                  {
                    "order": 2,
                    "subSection": {
                      "id": "Disp_08_Footnote_02",
                      "text": "Abbreviations: N, number of subjects in treatment arm; n, number of subjects with adverse event"
                    }
                  },
                  {
                    "order": 3,
                    "subSection": {
                      "id": "Disp_08_Footnote_03",
                      "text": "[1] Treatment-emergent death is defined as death with onset after the first dose of study drug."
                    }
                  },
                  {
                    "order": 4,
                    "subSection": {
                      "id": "Disp_08_Footnote_04",
                      "text": "[2] Non treatment-emergent death is defined as death that occurred beyond the protocol-defined treatment-emergent adverse event period."
                    }
                  }
                ]
              },
              {
                "sectionType": "Rowlabel Header",
                "orderedSubSections": [
                  {
                    "order": 1,
                    "subSection": {
                      "id": "Disp_08_RowlabelHeader_01",
                      "text": "Characteristics"
                    }
                  }
                ]
              }
            ]
          }
        }
      ],
      "version": 1,
      "categoryIds": [
        "ANSET_01",
        "ANSET_01_ANINT_05"
      ]
    }
  ],
  "@type": "ReportingEvent"
}