<?xml version="1.0" encoding="UTF-8"?>
<?xml-stylesheet type="text/xsl" href="define2-1-0.xsl"?>
<ODM
     xmlns:xlink="http://www.w3.org/1999/xlink"
     xmlns="http://www.cdisc.org/ns/odm/v1.3"
     xmlns:def="http://www.cdisc.org/ns/def/v2.1"
     xmlns:arm="http://www.cdisc.org/ns/arm/v1.0"
     ODMVersion="1.3.2"
     FileType="Snapshot"
     FileOID="CDISC---eTFL-Portal.ADaMIG.1.3"
     CreationDateTime="2024-10-08T23:43:38-04:00"
     SourceSystem="Pinnacle 21 Community"
     SourceSystemVersion="4.1.0"
     def:Context="Submission">
   <Study OID="CDISC---eTFL-Portal.ADaMIG.1.3">
      <GlobalVariables>
         <StudyName>CDISC - eTFL Portal</StudyName>
         <StudyDescription>Test datasets created by updating existing CDISCPILOT ADaM datasets for eTFL Portal</StudyDescription>
         <ProtocolName>eTFL Portal</ProtocolName>
      </GlobalVariables>
      <MetaDataVersion OID="MDV.CDISC---eTFL-Portal.ADaMIG.1.3"
                       Name="Study CDISC - eTFL Portal Data Definitions"
                       def:DefineVersion="2.1.0">
         <def:Standards>
            <def:Standard OID="STD.ADaMIG 1.3" Name="ADaMIG" Type="IG" Version="1.3" Status="FINAL"/>
            <def:Standard OID="STD.SDTM 2020-12-18" Name="CDISC/NCI" Type="CT" Version="2020-12-18"
                          PublishingSet="SDTM"
                          Status="FINAL"/>
         </def:Standards>
         <ItemGroupDef OID="IG.ADSL" Name="ADSL" Repeating="Yes" IsReferenceData="No"
                       SASDatasetName="ADSL"
                       Purpose="Analysis"
                       def:Structure="One record per subject"
                       def:ArchiveLocationID="LF.ADSL"
                       def:StandardOID="STD.ADaMIG 1.3"
                       def:CommentOID="COM.ADSL">
            <Description>
               <TranslatedText>Subject-Level Analysis</TranslatedText>
            </Description>
            <ItemRef ItemOID="IT.ADSL.STUDYID" Mandatory="Yes" OrderNumber="1" KeySequence="1"/>
            <ItemRef ItemOID="IT.ADSL.USUBJID" Mandatory="Yes" OrderNumber="2" KeySequence="2"/>
            <ItemRef ItemOID="IT.ADSL.SUBJID" Mandatory="Yes" OrderNumber="3"/>
            <ItemRef ItemOID="IT.ADSL.SITEID" Mandatory="Yes" OrderNumber="4"/>
            <ItemRef ItemOID="IT.ADSL.AGE" Mandatory="No" OrderNumber="5"/>
            <ItemRef ItemOID="IT.ADSL.AGEU" Mandatory="No" OrderNumber="6"/>
            <ItemRef ItemOID="IT.ADSL.AGEGR1" Mandatory="No" OrderNumber="7"
                     MethodOID="MT.ADSL.AGEGR1"/>
            <ItemRef ItemOID="IT.ADSL.AGEGR1N" Mandatory="No" OrderNumber="8"
                     MethodOID="MT.ADSL.AGEGR1N"/>
            <ItemRef ItemOID="IT.ADSL.SEX" Mandatory="Yes" OrderNumber="9"/>
            <ItemRef ItemOID="IT.ADSL.ASEX" Mandatory="No" OrderNumber="10" MethodOID="MT.ADSL.ASEX"/>
            <ItemRef ItemOID="IT.ADSL.ASEXN" Mandatory="No" OrderNumber="11"
                     MethodOID="MT.ADSL.ASEXN"/>
            <ItemRef ItemOID="IT.ADSL.RACE" Mandatory="Yes" OrderNumber="12"
                     MethodOID="MT.ADSL.RACE"/>
            <ItemRef ItemOID="IT.ADSL.ARACE" Mandatory="No" OrderNumber="13"
                     MethodOID="MT.ADSL.ARACE"/>
            <ItemRef ItemOID="IT.ADSL.ARACEN" Mandatory="No" OrderNumber="14"
                     MethodOID="MT.ADSL.ARACEN"/>
            <ItemRef ItemOID="IT.ADSL.ETHNIC" Mandatory="No" OrderNumber="15"
                     MethodOID="MT.ADSL.ETHNIC"/>
            <ItemRef ItemOID="IT.ADSL.AETHNIC" Mandatory="No" OrderNumber="16"
                     MethodOID="MT.ADSL.AETHNIC"/>
            <ItemRef ItemOID="IT.ADSL.AETHNICN" Mandatory="No" OrderNumber="17"
                     MethodOID="MT.ADSL.AETHNICN"/>
            <ItemRef ItemOID="IT.ADSL.COUNTRY" Mandatory="No" OrderNumber="18"/>
            <ItemRef ItemOID="IT.ADSL.ACOUNTRY" Mandatory="No" OrderNumber="19"
                     MethodOID="MT.ADSL.ACOUNTRY"/>
            <ItemRef ItemOID="IT.ADSL.WEIGHTBL" Mandatory="No" OrderNumber="20"
                     MethodOID="MT.ADSL.WEIGHTBL"/>
            <ItemRef ItemOID="IT.ADSL.HEIGHTBL" Mandatory="No" OrderNumber="21"
                     MethodOID="MT.ADSL.HEIGHTBL"/>
            <ItemRef ItemOID="IT.ADSL.BMIBL" Mandatory="No" OrderNumber="22"
                     MethodOID="MT.ADSL.BMIBL"/>
            <ItemRef ItemOID="IT.ADSL.DURDIS" Mandatory="No" OrderNumber="23"
                     MethodOID="MT.ADSL.DURDIS"/>
            <ItemRef ItemOID="IT.ADSL.SAFFL" Mandatory="No" OrderNumber="24"
                     MethodOID="MT.ADSL.SAFFL"/>
            <ItemRef ItemOID="IT.ADSL.ITTFL" Mandatory="No" OrderNumber="25"
                     MethodOID="MT.ADSL.ITTFL"/>
            <ItemRef ItemOID="IT.ADSL.RANDFL" Mandatory="No" OrderNumber="26"
                     MethodOID="MT.ADSL.RANDFL"/>
            <ItemRef ItemOID="IT.ADSL.PPROTFL" Mandatory="No" OrderNumber="27"
                     MethodOID="MT.ADSL.PPROTFL"/>
            <ItemRef ItemOID="IT.ADSL.ARM" Mandatory="Yes" OrderNumber="28" MethodOID="MT.ADSL.ARM"/>
            <ItemRef ItemOID="IT.ADSL.TRT01P" Mandatory="Yes" OrderNumber="29"
                     MethodOID="MT.ADSL.TRT01P"/>
            <ItemRef ItemOID="IT.ADSL.TRT01PN" Mandatory="No" OrderNumber="30"
                     MethodOID="MT.ADSL.TRT01PN"/>
            <ItemRef ItemOID="IT.ADSL.TRT01A" Mandatory="No" OrderNumber="31"
                     MethodOID="MT.ADSL.TRT01A"/>
            <ItemRef ItemOID="IT.ADSL.TRT01AN" Mandatory="No" OrderNumber="32"
                     MethodOID="MT.ADSL.TRT01AN"/>
            <def:Class Name="SUBJECT LEVEL ANALYSIS DATASET"/>
            <def:leaf ID="LF.ADSL" xlink:href="adsl.xpt">
               <def:title>adsl.xpt</def:title>
            </def:leaf>
         </ItemGroupDef>
         <ItemDef OID="IT.ADSL.STUDYID" Name="STUDYID" DataType="text" Length="12"
                  SASFieldName="STUDYID">
            <Description>
               <TranslatedText>Study Identifier</TranslatedText>
            </Description>
            <def:Origin Type="Predecessor">
               <Description>
                  <TranslatedText>DM.STUDYID</TranslatedText>
               </Description>
            </def:Origin>
         </ItemDef>
         <ItemDef OID="IT.ADSL.USUBJID" Name="USUBJID" DataType="text" Length="11"
                  SASFieldName="USUBJID">
            <Description>
               <TranslatedText>Unique Subject Identifier</TranslatedText>
            </Description>
            <def:Origin Type="Predecessor">
               <Description>
                  <TranslatedText>DM.USUBJID</TranslatedText>
               </Description>
            </def:Origin>
         </ItemDef>
         <ItemDef OID="IT.ADSL.SUBJID" Name="SUBJID" DataType="text" Length="4"
                  SASFieldName="SUBJID">
            <Description>
               <TranslatedText>Subject Identifier for the Study</TranslatedText>
            </Description>
            <def:Origin Type="Predecessor">
               <Description>
                  <TranslatedText>DM.SUBJID</TranslatedText>
               </Description>
            </def:Origin>
         </ItemDef>
         <ItemDef OID="IT.ADSL.SITEID" Name="SITEID" DataType="text" Length="3"
                  SASFieldName="SITEID">
            <Description>
               <TranslatedText>Study Site Identifier</TranslatedText>
            </Description>
            <def:Origin Type="Predecessor">
               <Description>
                  <TranslatedText>DM.SITEID</TranslatedText>
               </Description>
            </def:Origin>
         </ItemDef>
         <ItemDef OID="IT.ADSL.AGE" Name="AGE" DataType="integer" Length="8" SASFieldName="AGE">
            <Description>
               <TranslatedText>Age</TranslatedText>
            </Description>
            <def:Origin Type="Predecessor">
               <Description>
                  <TranslatedText>DM.AGE</TranslatedText>
               </Description>
            </def:Origin>
         </ItemDef>
         <ItemDef OID="IT.ADSL.AGEU" Name="AGEU" DataType="text" Length="5" SASFieldName="AGEU">
            <Description>
               <TranslatedText>Age Units</TranslatedText>
            </Description>
            <CodeListRef CodeListOID="CL.AGEU"/>
            <def:Origin Type="Predecessor">
               <Description>
                  <TranslatedText>DM.AGEU</TranslatedText>
               </Description>
            </def:Origin>
         </ItemDef>
         <ItemDef OID="IT.ADSL.AGEGR1" Name="AGEGR1" DataType="text" Length="5"
                  SASFieldName="AGEGR1">
            <Description>
               <TranslatedText>Pooled Age Group 1</TranslatedText>
            </Description>
            <CodeListRef CodeListOID="CL.AGEGR1"/>
            <def:Origin Type="Derived" Source="Sponsor"/>
         </ItemDef>
         <ItemDef OID="IT.ADSL.AGEGR1N" Name="AGEGR1N" DataType="integer" Length="8"
                  SASFieldName="AGEGR1N">
            <Description>
               <TranslatedText>Pooled Age Group 1 (N)</TranslatedText>
            </Description>
            <CodeListRef CodeListOID="CL.AGEGR1N"/>
            <def:Origin Type="Derived" Source="Sponsor"/>
         </ItemDef>
         <ItemDef OID="IT.ADSL.SEX" Name="SEX" DataType="text" Length="1" SASFieldName="SEX">
            <Description>
               <TranslatedText>Sex</TranslatedText>
            </Description>
            <CodeListRef CodeListOID="CL.SEX"/>
            <def:Origin Type="Predecessor">
               <Description>
                  <TranslatedText>DM.SEX</TranslatedText>
               </Description>
            </def:Origin>
         </ItemDef>
         <ItemDef OID="IT.ADSL.ASEX" Name="ASEX" DataType="text" Length="6" SASFieldName="ASEX">
            <Description>
               <TranslatedText>Analysis Sex</TranslatedText>
            </Description>
            <CodeListRef CodeListOID="CL.ASEX"/>
            <def:Origin Type="Derived" Source="Sponsor"/>
         </ItemDef>
         <ItemDef OID="IT.ADSL.ASEXN" Name="ASEXN" DataType="integer" Length="8"
                  SASFieldName="ASEXN">
            <Description>
               <TranslatedText>Analysis Sex (N)</TranslatedText>
            </Description>
            <def:Origin Type="Derived" Source="Sponsor"/>
         </ItemDef>
         <ItemDef OID="IT.ADSL.RACE" Name="RACE" DataType="text" Length="32" SASFieldName="RACE">
            <Description>
               <TranslatedText>Race</TranslatedText>
            </Description>
            <CodeListRef CodeListOID="CL.RACE"/>
            <def:Origin Type="Predecessor">
               <Description>
                  <TranslatedText>DM.RACE</TranslatedText>
               </Description>
            </def:Origin>
         </ItemDef>
         <ItemDef OID="IT.ADSL.ARACE" Name="ARACE" DataType="text" Length="32"
                  SASFieldName="ARACE">
            <Description>
               <TranslatedText>Analysis Race</TranslatedText>
            </Description>
            <CodeListRef CodeListOID="CL.ARACE"/>
            <def:Origin Type="Derived" Source="Sponsor"/>
         </ItemDef>
         <ItemDef OID="IT.ADSL.ARACEN" Name="ARACEN" DataType="integer" Length="8"
                  SASFieldName="ARACEN">
            <Description>
               <TranslatedText>Analysis Race (N)</TranslatedText>
            </Description>
            <CodeListRef CodeListOID="CL.ARACEN"/>
            <def:Origin Type="Derived" Source="Sponsor"/>
         </ItemDef>
         <ItemDef OID="IT.ADSL.ETHNIC" Name="ETHNIC" DataType="text" Length="22"
                  SASFieldName="ETHNIC">
            <Description>
               <TranslatedText>Ethnicity</TranslatedText>
            </Description>
            <CodeListRef CodeListOID="CL.ETHNIC"/>
            <def:Origin Type="Predecessor">
               <Description>
                  <TranslatedText>DM.ETHNIC</TranslatedText>
               </Description>
            </def:Origin>
         </ItemDef>
         <ItemDef OID="IT.ADSL.AETHNIC" Name="AETHNIC" DataType="text" Length="22"
                  SASFieldName="AETHNIC">
            <Description>
               <TranslatedText>Analysis Ethnicity</TranslatedText>
            </Description>
            <CodeListRef CodeListOID="CL.AETHNIC"/>
            <def:Origin Type="Derived" Source="Sponsor"/>
         </ItemDef>
         <ItemDef OID="IT.ADSL.AETHNICN" Name="AETHNICN" DataType="integer" Length="8"
                  SASFieldName="AETHNICN">
            <Description>
               <TranslatedText>Analysis Ethnicity (N)</TranslatedText>
            </Description>
            <CodeListRef CodeListOID="CL.AETHNICN"/>
            <def:Origin Type="Derived" Source="Sponsor"/>
         </ItemDef>
         <ItemDef OID="IT.ADSL.COUNTRY" Name="COUNTRY" DataType="text" Length="3"
                  SASFieldName="COUNTRY">
            <Description>
               <TranslatedText>Country of Participation</TranslatedText>
            </Description>
            <def:Origin Type="Predecessor">
               <Description>
                  <TranslatedText>DM.COUNTRY</TranslatedText>
               </Description>
            </def:Origin>
         </ItemDef>
         <ItemDef OID="IT.ADSL.ACOUNTRY" Name="ACOUNTRY" DataType="text" Length="14"
                  SASFieldName="ACOUNTRY">
            <Description>
               <TranslatedText>Analysis Country of Participation</TranslatedText>
            </Description>
            <CodeListRef CodeListOID="CL.ACOUNTRY"/>
            <def:Origin Type="Derived" Source="Sponsor"/>
         </ItemDef>
         <ItemDef OID="IT.ADSL.WEIGHTBL" Name="WEIGHTBL" DataType="float" Length="4"
                  SignificantDigits="1"
                  SASFieldName="WEIGHTBL">
            <Description>
               <TranslatedText>Baseline Weight (kg)</TranslatedText>
            </Description>
            <def:Origin Type="Derived" Source="Sponsor"/>
         </ItemDef>
         <ItemDef OID="IT.ADSL.HEIGHTBL" Name="HEIGHTBL" DataType="float" Length="4"
                  SignificantDigits="1"
                  SASFieldName="HEIGHTBL">
            <Description>
               <TranslatedText>Baseline Height (cm)</TranslatedText>
            </Description>
            <def:Origin Type="Derived" Source="Sponsor"/>
         </ItemDef>
         <ItemDef OID="IT.ADSL.BMIBL" Name="BMIBL" DataType="float" Length="3"
                  SignificantDigits="1"
                  SASFieldName="BMIBL">
            <Description>
               <TranslatedText>Baseline BMI (kg/m^2)</TranslatedText>
            </Description>
            <def:Origin Type="Derived" Source="Sponsor"/>
         </ItemDef>
         <ItemDef OID="IT.ADSL.DURDIS" Name="DURDIS" DataType="float" Length="4"
                  SignificantDigits="1"
                  SASFieldName="DURDIS">
            <Description>
               <TranslatedText>Duration of Disease (Months)</TranslatedText>
            </Description>
            <def:Origin Type="Derived" Source="Sponsor"/>
         </ItemDef>
         <ItemDef OID="IT.ADSL.SAFFL" Name="SAFFL" DataType="text" Length="1"
                  SASFieldName="SAFFL">
            <Description>
               <TranslatedText>Safety Population Flag</TranslatedText>
            </Description>
            <CodeListRef CodeListOID="CL.YN"/>
            <def:Origin Type="Derived" Source="Sponsor"/>
         </ItemDef>
         <ItemDef OID="IT.ADSL.ITTFL" Name="ITTFL" DataType="text" Length="1"
                  SASFieldName="ITTFL">
            <Description>
               <TranslatedText>Intent-To-Treat Population Flag</TranslatedText>
            </Description>
            <CodeListRef CodeListOID="CL.YN"/>
            <def:Origin Type="Derived" Source="Sponsor"/>
         </ItemDef>
         <ItemDef OID="IT.ADSL.RANDFL" Name="RANDFL" DataType="text" Length="1"
                  SASFieldName="RANDFL">
            <Description>
               <TranslatedText>Randomized Population Flag</TranslatedText>
            </Description>
            <CodeListRef CodeListOID="CL.YN"/>
            <def:Origin Type="Derived" Source="Sponsor"/>
         </ItemDef>
         <ItemDef OID="IT.ADSL.PPROTFL" Name="PPROTFL" DataType="text" Length="1"
                  SASFieldName="PPROTFL">
            <Description>
               <TranslatedText>Per-Protocol Population Flag</TranslatedText>
            </Description>
            <CodeListRef CodeListOID="CL.YN"/>
            <def:Origin Type="Derived" Source="Sponsor"/>
         </ItemDef>
         <ItemDef OID="IT.ADSL.ARM" Name="ARM" DataType="text" Length="20" SASFieldName="ARM">
            <Description>
               <TranslatedText>Description of Planned Arm</TranslatedText>
            </Description>
            <CodeListRef CodeListOID="CL.ARM"/>
            <def:Origin Type="Predecessor">
               <Description>
                  <TranslatedText>DM.ARM</TranslatedText>
               </Description>
            </def:Origin>
         </ItemDef>
         <ItemDef OID="IT.ADSL.TRT01P" Name="TRT01P" DataType="text" Length="20"
                  SASFieldName="TRT01P">
            <Description>
               <TranslatedText>Planned Treatment for Period 01</TranslatedText>
            </Description>
            <CodeListRef CodeListOID="CL.ARM"/>
            <def:Origin Type="Predecessor">
               <Description>
                  <TranslatedText>DM.ARM</TranslatedText>
               </Description>
            </def:Origin>
         </ItemDef>
         <ItemDef OID="IT.ADSL.TRT01PN" Name="TRT01PN" DataType="integer" Length="8"
                  SASFieldName="TRT01PN">
            <Description>
               <TranslatedText>Planned Treatment for Period 01 (N)</TranslatedText>
            </Description>
            <CodeListRef CodeListOID="CL.ARMN"/>
            <def:Origin Type="Derived" Source="Sponsor"/>
         </ItemDef>
         <ItemDef OID="IT.ADSL.TRT01A" Name="TRT01A" DataType="text" Length="20"
                  SASFieldName="TRT01A">
            <Description>
               <TranslatedText>Actual Treatment for Period 01</TranslatedText>
            </Description>
            <CodeListRef CodeListOID="CL.ARM"/>
            <def:Origin Type="Derived" Source="Sponsor"/>
         </ItemDef>
         <ItemDef OID="IT.ADSL.TRT01AN" Name="TRT01AN" DataType="integer" Length="8"
                  SASFieldName="TRT01AN">
            <Description>
               <TranslatedText>Actual Treatment for Period 01 (N)</TranslatedText>
            </Description>
            <CodeListRef CodeListOID="CL.ARMN"/>
            <def:Origin Type="Derived" Source="Sponsor"/>
         </ItemDef>
         <CodeList OID="CL.ACOUNTRY" Name="Analysis Country" DataType="text"
                   def:IsNonStandard="Yes">
            <EnumeratedItem CodedValue="United States" OrderNumber="1"/>
         </CodeList>
         <CodeList OID="CL.AETHNIC" Name="Analysis Ethnicity" DataType="text"
                   def:IsNonStandard="Yes">
            <EnumeratedItem CodedValue="Hispanic or Latino" OrderNumber="1"/>
            <EnumeratedItem CodedValue="Not Hispanic or Latino" OrderNumber="2"/>
            <EnumeratedItem CodedValue="Not Reported" OrderNumber="3"/>
            <EnumeratedItem CodedValue="Unknown" OrderNumber="4"/>
         </CodeList>
         <CodeList OID="CL.AETHNICN" Name="Analysis Ethnicity (N)" DataType="integer"
                   def:IsNonStandard="Yes">
            <CodeListItem CodedValue="1" OrderNumber="1">
               <Decode>
                  <TranslatedText>Hispanic or Latino</TranslatedText>
               </Decode>
            </CodeListItem>
            <CodeListItem CodedValue="2" OrderNumber="2">
               <Decode>
                  <TranslatedText>Not Hispanic or Latino</TranslatedText>
               </Decode>
            </CodeListItem>
            <CodeListItem CodedValue="3" OrderNumber="3">
               <Decode>
                  <TranslatedText>Not Reported</TranslatedText>
               </Decode>
            </CodeListItem>
            <CodeListItem CodedValue="4" OrderNumber="4">
               <Decode>
                  <TranslatedText>Unknown</TranslatedText>
               </Decode>
            </CodeListItem>
         </CodeList>
         <CodeList OID="CL.AGEGR1" Name="Age Group 1" DataType="text" def:IsNonStandard="Yes">
            <EnumeratedItem CodedValue="&lt;65" OrderNumber="1"/>
            <EnumeratedItem CodedValue="65-80" OrderNumber="2"/>
            <EnumeratedItem CodedValue="&gt;80" OrderNumber="3"/>
         </CodeList>
         <CodeList OID="CL.AGEGR1N" Name="Age Group 1 (N)" DataType="integer"
                   def:IsNonStandard="Yes">
            <CodeListItem CodedValue="1" OrderNumber="1">
               <Decode>
                  <TranslatedText>&lt;65</TranslatedText>
               </Decode>
            </CodeListItem>
            <CodeListItem CodedValue="2" OrderNumber="2">
               <Decode>
                  <TranslatedText>65-80</TranslatedText>
               </Decode>
            </CodeListItem>
            <CodeListItem CodedValue="3" OrderNumber="3">
               <Decode>
                  <TranslatedText>&gt;80</TranslatedText>
               </Decode>
            </CodeListItem>
         </CodeList>
         <CodeList OID="CL.AGEU" Name="Age Unit" DataType="text"
                   def:StandardOID="STD.SDTM 2020-12-18">
            <EnumeratedItem CodedValue="YEARS" OrderNumber="1">
               <Alias Name="C29848" Context="nci:ExtCodeID"/>
            </EnumeratedItem>
            <Alias Name="C66781" Context="nci:ExtCodeID"/>
         </CodeList>
         <CodeList OID="CL.ARACE" Name="Analysis Race" DataType="text" def:IsNonStandard="Yes">
            <EnumeratedItem CodedValue="American Indian or Alaska Native" OrderNumber="1"/>
            <EnumeratedItem CodedValue="Asian" OrderNumber="2"/>
            <EnumeratedItem CodedValue="Black or African American" OrderNumber="3"/>
            <EnumeratedItem CodedValue="Native Hawaiian or Other Pacific Islander" OrderNumber="4"/>
            <EnumeratedItem CodedValue="White" OrderNumber="5"/>
            <EnumeratedItem CodedValue="Other" OrderNumber="6"/>
            <EnumeratedItem CodedValue="Not Reported" OrderNumber="7"/>
            <EnumeratedItem CodedValue="Unknown" OrderNumber="8"/>
         </CodeList>
         <CodeList OID="CL.ARACEN" Name="Analysis Race (N)" DataType="integer"
                   def:IsNonStandard="Yes">
            <CodeListItem CodedValue="1" OrderNumber="1">
               <Decode>
                  <TranslatedText>American Indian or Alaska Native</TranslatedText>
               </Decode>
            </CodeListItem>
            <CodeListItem CodedValue="2" OrderNumber="2">
               <Decode>
                  <TranslatedText>Asian</TranslatedText>
               </Decode>
            </CodeListItem>
            <CodeListItem CodedValue="3" OrderNumber="3">
               <Decode>
                  <TranslatedText>Black or African American</TranslatedText>
               </Decode>
            </CodeListItem>
            <CodeListItem CodedValue="4" OrderNumber="4">
               <Decode>
                  <TranslatedText>Native Hawaiian or Other Pacific Islander</TranslatedText>
               </Decode>
            </CodeListItem>
            <CodeListItem CodedValue="5" OrderNumber="5">
               <Decode>
                  <TranslatedText>White</TranslatedText>
               </Decode>
            </CodeListItem>
            <CodeListItem CodedValue="6" OrderNumber="6">
               <Decode>
                  <TranslatedText>Other</TranslatedText>
               </Decode>
            </CodeListItem>
            <CodeListItem CodedValue="7" OrderNumber="7">
               <Decode>
                  <TranslatedText>Not Reported</TranslatedText>
               </Decode>
            </CodeListItem>
            <CodeListItem CodedValue="8" OrderNumber="8">
               <Decode>
                  <TranslatedText>Unknown</TranslatedText>
               </Decode>
            </CodeListItem>
         </CodeList>
         <CodeList OID="CL.ARM" Name="Planned Arm" DataType="text" def:IsNonStandard="Yes">
            <EnumeratedItem CodedValue="Xanomeline Low Dose" OrderNumber="1"/>
            <EnumeratedItem CodedValue="Xanomeline High Dose" OrderNumber="2"/>
            <EnumeratedItem CodedValue="Placebo" OrderNumber="3"/>
         </CodeList>
         <CodeList OID="CL.ARMN" Name="Planned Arm (N)" DataType="integer" def:IsNonStandard="Yes">
            <CodeListItem CodedValue="1" OrderNumber="1">
               <Decode>
                  <TranslatedText>Xanomeline Low Dose</TranslatedText>
               </Decode>
            </CodeListItem>
            <CodeListItem CodedValue="2" OrderNumber="2">
               <Decode>
                  <TranslatedText>Xanomeline High Dose</TranslatedText>
               </Decode>
            </CodeListItem>
            <CodeListItem CodedValue="3" OrderNumber="3">
               <Decode>
                  <TranslatedText>Placebo</TranslatedText>
               </Decode>
            </CodeListItem>
         </CodeList>
         <CodeList OID="CL.ASEX" Name="Analysis Sex" DataType="text" def:IsNonStandard="Yes">
            <EnumeratedItem CodedValue="Male" OrderNumber="1"/>
            <EnumeratedItem CodedValue="Female" OrderNumber="2"/>
            <EnumeratedItem CodedValue="Intersex" OrderNumber="3"/>
            <EnumeratedItem CodedValue="Unknown" OrderNumber="4"/>
         </CodeList>
         <CodeList OID="CL.ETHNIC" Name="Ethnicity" DataType="text" def:IsNonStandard="Yes">
            <EnumeratedItem CodedValue="NOT HISPANIC OR LATINO" OrderNumber="1"/>
            <EnumeratedItem CodedValue="HISPANIC OR LATINO" OrderNumber="2"/>
         </CodeList>
         <CodeList OID="CL.RACE" Name="Race" DataType="text" def:StandardOID="STD.SDTM 2020-12-18">
            <EnumeratedItem CodedValue="ASIAN" OrderNumber="4">
               <Alias Name="C41260" Context="nci:ExtCodeID"/>
            </EnumeratedItem>
            <EnumeratedItem CodedValue="WHITE" OrderNumber="1">
               <Alias Name="C41261" Context="nci:ExtCodeID"/>
            </EnumeratedItem>
            <EnumeratedItem CodedValue="BLACK OR AFRICAN AMERICAN" OrderNumber="2">
               <Alias Name="C16352" Context="nci:ExtCodeID"/>
            </EnumeratedItem>
            <EnumeratedItem CodedValue="AMERICAN INDIAN OR ALASKA NATIVE" OrderNumber="3">
               <Alias Name="C41259" Context="nci:ExtCodeID"/>
            </EnumeratedItem>
            <Alias Name="C74457" Context="nci:ExtCodeID"/>
         </CodeList>
         <CodeList OID="CL.SEX" Name="Sex" DataType="text" def:StandardOID="STD.SDTM 2020-12-18">
            <CodeListItem CodedValue="F" OrderNumber="1">
               <Decode>
                  <TranslatedText>Female</TranslatedText>
               </Decode>
               <Alias Name="C16576" Context="nci:ExtCodeID"/>
            </CodeListItem>
            <CodeListItem CodedValue="M" OrderNumber="2">
               <Decode>
                  <TranslatedText>Male</TranslatedText>
               </Decode>
               <Alias Name="C20197" Context="nci:ExtCodeID"/>
            </CodeListItem>
            <CodeListItem CodedValue="U" OrderNumber="3">
               <Decode>
                  <TranslatedText>U; UNK; Unknown</TranslatedText>
               </Decode>
               <Alias Name="C66731" Context="nci:ExtCodeID"/>
            </CodeListItem>
            <Alias Name="C66731" Context="nci:ExtCodeID"/>
         </CodeList>
         <CodeList OID="CL.SEXN" Name="Analysis Sex (N)" DataType="integer"
                   def:IsNonStandard="Yes">
            <CodeListItem CodedValue="1" OrderNumber="1">
               <Decode>
                  <TranslatedText>Male</TranslatedText>
               </Decode>
            </CodeListItem>
            <CodeListItem CodedValue="2" OrderNumber="2">
               <Decode>
                  <TranslatedText>Female</TranslatedText>
               </Decode>
            </CodeListItem>
            <CodeListItem CodedValue="3" OrderNumber="3">
               <Decode>
                  <TranslatedText>Intersex</TranslatedText>
               </Decode>
            </CodeListItem>
            <CodeListItem CodedValue="4" OrderNumber="4">
               <Decode>
                  <TranslatedText>Unknown</TranslatedText>
               </Decode>
            </CodeListItem>
         </CodeList>
         <CodeList OID="CL.YN" Name="No Yes Response" DataType="text"
                   def:StandardOID="STD.SDTM 2020-12-18">
            <CodeListItem CodedValue="N" OrderNumber="1">
               <Decode>
                  <TranslatedText>No</TranslatedText>
               </Decode>
               <Alias Name="C49487" Context="nci:ExtCodeID"/>
            </CodeListItem>
            <CodeListItem CodedValue="Y" OrderNumber="2">
               <Decode>
                  <TranslatedText>Yes</TranslatedText>
               </Decode>
               <Alias Name="C49488" Context="nci:ExtCodeID"/>
            </CodeListItem>
            <Alias Name="C66742" Context="nci:ExtCodeID"/>
         </CodeList>
         <MethodDef OID="MT.ADSL.AGEGR1" Name="Algorithm to derive ADSL.AGEGR1" Type="Computation">
            <Description>
               <TranslatedText>Character variable derived from ADSL.AGEGR1N</TranslatedText>
            </Description>
         </MethodDef>
         <MethodDef OID="MT.ADSL.AGEGR1N" Name="Algorithm to derive ADSL.AGEGR1N"
                    Type="Computation">
            <Description>
               <TranslatedText>AGEGR1 = 1 if AGE &lt;65.
AGEGR1 = 2 if AGE 65-80.
AGEGR1 = 3 if AGE &gt;80.</TranslatedText>
            </Description>
         </MethodDef>
         <MethodDef OID="MT.ADSL.RACEN" Name="Algorithm to derive ADSL.RACEN" Type="Computation">
            <Description>
               <TranslatedText>Numeric code for RACE</TranslatedText>
            </Description>
         </MethodDef>
         <MethodDef OID="MT.ADSL.WEIGHTBL" Name="Algorithm to derive ADSL.WEIGHTBL"
                    Type="Computation">
            <Description>
               <TranslatedText>VSSTRESN when VS.VSTESTCD='WEIGHT' and VS.VISITNUM=3</TranslatedText>
            </Description>
         </MethodDef>
         <MethodDef OID="MT.ADSL.HEIGHTBL" Name="Algorithm to derive ADSL.HEIGHTBL"
                    Type="Computation">
            <Description>
               <TranslatedText>VSSTRESN when VS.VSTESTCD='HEIGHT' and VS.VISITNUM=1</TranslatedText>
            </Description>
         </MethodDef>
         <MethodDef OID="MT.ADSL.BMIBL" Name="Algorithm to derive ADSL.BMIBL" Type="Computation">
            <Description>
               <TranslatedText>WEIGHTBL / ((HEIGHTBL*100)**2)</TranslatedText>
            </Description>
         </MethodDef>
         <MethodDef OID="MT.ADSL.DURDIS" Name="Algorithm to derive ADSL.DURDIS" Type="Computation">
            <Description>
               <TranslatedText>number of months between VISIT1DT and DISONSET</TranslatedText>
            </Description>
         </MethodDef>
         <MethodDef OID="MT.ADSL.SAFFL" Name="Algorithm to derive ADSL.SAFFL" Type="Computation">
            <Description>
               <TranslatedText>Y if ITTFL='Y' and TRTSDT ne missing. N otherwise</TranslatedText>
            </Description>
         </MethodDef>
         <MethodDef OID="MT.ADSL.ITTFL" Name="Algorithm to derive ADSL.ITTFL" Type="Computation">
            <Description>
               <TranslatedText>Y if ARMCD ne ' '. N otherwise</TranslatedText>
            </Description>
         </MethodDef>
         <MethodDef OID="MT.ADSL.RANDFL" Name="Algorithm to derive ADSL.RANDFL" Type="Computation">
            <Description>
               <TranslatedText>Y if ARMCD ne ' '. N otherwise</TranslatedText>
            </Description>
         </MethodDef>
         <MethodDef OID="MT.ADSL.PPROTFL" Name="Algorithm to derive ADSL.PPROTFL"
                    Type="Computation">
            <Description>
               <TranslatedText>Y if SAFFL='Y' and subject met all protocol defined criterias. N otherwise</TranslatedText>
            </Description>
         </MethodDef>
         <MethodDef OID="MT.ADSL.ASEX" Name="Algorithm to derive ADSL.ASEX" Type="Computation">
            <Description>
               <TranslatedText>Analysis variable which corresponds to DM.SEX</TranslatedText>
            </Description>
         </MethodDef>
         <MethodDef OID="MT.ADSL.ASEXN" Name="Algorithm to derive ADSL.ASEXN" Type="Computation">
            <Description>
               <TranslatedText>Numeric code for ASEX which corresponds to DM.SEX</TranslatedText>
            </Description>
         </MethodDef>
         <MethodDef OID="MT.ADSL.ARACE" Name="Algorithm to derive ADSL.ARACE" Type="Computation">
            <Description>
               <TranslatedText>Analysis variable which corresponds to DM.RACE</TranslatedText>
            </Description>
         </MethodDef>
         <MethodDef OID="MT.ADSL.ARACEN" Name="Algorithm to derive ADSL.ARACEN" Type="Computation">
            <Description>
               <TranslatedText>Numeric code for ARACE which corresponds to DM.RACE</TranslatedText>
            </Description>
         </MethodDef>
         <MethodDef OID="MT.ADSL.AETHNIC" Name="Algorithm to derive ADSL.AETHNIC"
                    Type="Computation">
            <Description>
               <TranslatedText>Analysis variable which corresponds to DM.ETHNIC</TranslatedText>
            </Description>
         </MethodDef>
         <MethodDef OID="MT.ADSL.AETHNICN" Name="Algorithm to derive ADSL.AETHNICN"
                    Type="Computation">
            <Description>
               <TranslatedText>Numeric code for AETHNIC which corresponds to DM.ETHNIC</TranslatedText>
            </Description>
         </MethodDef>
         <MethodDef OID="MT.ADSL.ACOUNTRY" Name="Algorithm to derive ADSL.ACOUNTRY"
                    Type="Computation">
            <Description>
               <TranslatedText>Analysis variable which corresponds to DM.COUNTRY</TranslatedText>
            </Description>
         </MethodDef>
         <MethodDef OID="MT.ADSL.TRT01PN" Name="Algorithm to derive ADSL.TRT01PN"
                    Type="Computation">
            <Description>
               <TranslatedText>Numeric code for TRT01P which corresponds to the randomized dose</TranslatedText>
            </Description>
         </MethodDef>
         <MethodDef OID="MT.ADSL.TRT01A" Name="Algorithm to derive ADSL.TRT01A" Type="Computation">
            <Description>
               <TranslatedText>TRT01A=TRT01P, i.e., no difference between actual and randomized treatment in this study.</TranslatedText>
            </Description>
         </MethodDef>
         <MethodDef OID="MT.ADSL.TRT01AN" Name="Algorithm to derive ADSL.TRT01AN"
                    Type="Computation">
            <Description>
               <TranslatedText>Numeric code for TRT01A which corresponds to the randomized dose</TranslatedText>
            </Description>
         </MethodDef>
      </MetaDataVersion>
   </Study>
</ODM>