{
  "name": "Baseline Demographic and Clinical Characteristics",
  "id": "FDA-DM-T02",
  "mainListOfContents": {
    "name": "List of Planned Analyses",
    "label": "LOPA",
    "contentsList": {
      "listItems": [
        {
          "name": "Baseline Demographic and Clinical Characteristics",
          "level": 1,
          "order": 1,
          "outputId": "Out_01",
          "sublist": {
            "listItems": [
              {
                "name": "    Summary of Subjects by Treatment",
                "level": 2,
                "order": 1,
                "analysisId": "An_01"
              },
              {
                "name": "    Sex, n (%)",
                "level": 2,
                "order": 2,
                "sublist": {
                  "listItems": [
                    {
                      "name": "        Summary of Subjects by Treatment and Sex, n (%)",
                      "level": 3,
                      "order": 1,
                      "analysisId": "An_02"
                    },
                    {
                      "name": "        Summary of Subjects by Sex, n (%)",
                      "level": 3,
                      "order": 2,
                      "analysisId": "An_02_Total"
                    }
                  ]
                }
              },
              {
                "name": "    Age, Years",
                "level": 2,
                "order": 3,
                "sublist": {
                  "listItems": [
                    {
                      "name": "        Summary of Age, Years by Treatment",
                      "level": 3,
                      "order": 1,
                      "analysisId": "An_03"
                    },
                    {
                      "name": "        Summary of Age, Years",
                      "level": 3,
                      "order": 2,
                      "analysisId": "An_03_Total"
                    }
                  ]
                }
              },
              {
                "name": "    Age groups (years), n (%)",
                "level": 2,
                "order": 4,
                "sublist": {
                  "listItems": [
                    {
                      "name": "        Summary of Subjects by Treatment and Age groups (years), n (%)",
                      "level": 3,
                      "order": 1,
                      "analysisId": "An_04"
                    },
                    {
                      "name": "        Summary of Subjects by Age groups (years), n (%)",
                      "level": 3,
                      "order": 2,
                      "analysisId": "An_04_Total"
                    }
                  ]
                }
              },
              {
                "name": "    Race, n (%)",
                "level": 2,
                "order": 5,
                "sublist": {
                  "listItems": [
                    {
                      "name": "        Summary of Subjects by Treatment and Race, n (%)",
                      "level": 3,
                      "order": 1,
                      "analysisId": "An_05"
                    },
                    {
                      "name": "        Summary of Subjects by Race, n (%)",
                      "level": 3,
                      "order": 2,
                      "analysisId": "An_05_Total"
                    }
                  ]
                }
              },
              {
                "name": "    Ethnicity, n (%)",
                "level": 2,
                "order": 6,
                "sublist": {
                  "listItems": [
                    {
                      "name": "        Summary of Subjects by Treatment and Ethnicity, n (%)",
                      "level": 3,
                      "order": 1,
                      "analysisId": "An_06"
                    },
                    {
                      "name": "        Summary of Subjects by Ethnicity, n (%)",
                      "level": 3,
                      "order": 2,
                      "analysisId": "An_06_Total"
                    }
                  ]
                }
              },
              {
                "name": "    Country of participation, n (%)",
                "level": 2,
                "order": 7,
                "sublist": {
                  "listItems": [
                    {
                      "name": "        Summary of Subjects by Treatment and Country of participation, n (%)",
                      "level": 3,
                      "order": 1,
                      "analysisId": "An_07"
                    },
                    {
                      "name": "        Summary of Subjects by Country of participation, n (%)",
                      "level": 3,
                      "order": 2,
                      "analysisId": "An_07_Total"
                    }
                  ]
                }
              },
              {
                "name": "    Baseline Weight (kg)",
                "level": 2,
                "order": 8,
                "sublist": {
                  "listItems": [
                    {
                      "name": "        Summary of Baseline Weight (kg) by Treatment",
                      "level": 3,
                      "order": 1,
                      "analysisId": "An_08"
                    },
                    {
                      "name": "        Summary of Baseline Weight (kg)",
                      "level": 3,
                      "order": 2,
                      "analysisId": "An_08_Total"
                    }
                  ]
                }
              },
              {
                "name": "    Baseline Height (cm)",
                "level": 2,
                "order": 9,
                "sublist": {
                  "listItems": [
                    {
                      "name": "        Summary of Baseline Height (cm) by Treatment",
                      "level": 3,
                      "order": 1,
                      "analysisId": "An_09"
                    },
                    {
                      "name": "        Summary of Baseline Height (cm)",
                      "level": 3,
                      "order": 2,
                      "analysisId": "An_09_Total"
                    }
                  ]
                }
              },
              {
                "name": "    Baseline BMI (kg/m^2)",
                "level": 2,
                "order": 10,
                "sublist": {
                  "listItems": [
                    {
                      "name": "        Summary of Baseline BMI (kg/m^2) by Treatment",
                      "level": 3,
                      "order": 1,
                      "analysisId": "An_10"
                    },
                    {
                      "name": "        Summary of Baseline BMI (kg/m^2)",
                      "level": 3,
                      "order": 2,
                      "analysisId": "An_10_Total"
                    }
                  ]
                }
              },
              {
                "name": "    Duration of Disease (Months)",
                "level": 2,
                "order": 11,
                "sublist": {
                  "listItems": [
                    {
                      "name": "        Summary of Duration of Disease (Months) by Treatment",
                      "level": 3,
                      "order": 1,
                      "analysisId": "An_11"
                    },
                    {
                      "name": "        Summary of Duration of Disease (Months)",
                      "level": 3,
                      "order": 2,
                      "analysisId": "An_11_Total"
                    }
                  ]
                }
              }
            ]
          }
        }
      ]
    }
  },
  "version": 1,
  "otherListsOfContents": [
    {
      "name": "List of Planned Outputs",
      "label": "LOPO",
      "contentsList": {
        "listItems": [
          {
            "name": "Baseline Demographic and Clinical Characteristics",
            "level": 1,
            "order": 1,
            "outputId": "Out_01"
          }
        ]
      }
    }
  ],
  "terminologyExtensions": [
    {
      "id": "TermEx01",
      "sponsorTerms": [
        {
          "id": "TermEx01_01",
          "submissionValue": "POPULATION SUMMARY",
          "description": "Summary statistics describing the study population(s)."
        }
      ],
      "enumeration": "AnalysisPurposeEnum"
    }
  ],
  "analysisOutputCategorizations": [
    {
      "id": "ANSET",
      "categories": [
        {
          "id": "ANSET_01",
          "label": "Safety",
          "subCategorizations": [
            {
              "id": "ANSET_01_ANINT",
              "categories": [
                {
                  "id": "ANSET_01_ANINT_04",
                  "label": "Demographics"
                }
              ],
              "label": "Safety Analysis Of Interest"
            }
          ]
        }
      ],
      "label": "Analysis Sets"
    }
  ],
  "analysisSets": [
    {
      "name": "Safety Population",
      "description": "All patients randomized and known to have taken at least one dose of randomized drug.",
      "id": "AnalysisSet_01",
      "level": 1,
      "order": 1,
      "condition": {
        "dataset": "ADSL",
        "variable": "SAFFL",
        "comparator": "EQ",
        "value": [
          "Y"
        ]
      }
    }
  ],
  "dataSubsets": [
    {
      "name": "Any treatment",
      "id": "Dss_28",
      "level": 1,
      "order": 4,
      "condition": {
        "dataset": "ADSL",
        "variable": "TRT01AN",
        "comparator": "NE"
      }
    }
  ],
  "analysisGroupings": [
    {
      "name": "Treatment",
      "id": "AnlsGrouping_01_Trt01An",
      "dataDriven": false,
      "groupingDataset": "ADSL",
      "groupingVariable": "TRT01AN",
      "groups": [
        {
          "name": "Xanomeline Low Dose \n(N=XX)\nn (%)",
          "id": "AnlsGrouping_01_Trt01An_01",
          "level": 1,
          "order": 1,
          "condition": {
            "dataset": "ADSL",
            "variable": "TRT01AN",
            "comparator": "EQ",
            "value": [
              "1"
            ]
          }
        },
        {
          "name": "Xanomeline High Dose \n(N=XX)\nn (%)",
          "id": "AnlsGrouping_01_Trt01An_02",
          "level": 1,
          "order": 2,
          "condition": {
            "dataset": "ADSL",
            "variable": "TRT01AN",
            "comparator": "EQ",
            "value": [
              "2"
            ]
          }
        },
        {
          "name": "Placebo \n(N=XX)\nn (%)",
          "id": "AnlsGrouping_01_Trt01An_03",
          "level": 1,
          "order": 3,
          "condition": {
            "dataset": "ADSL",
            "variable": "TRT01AN",
            "comparator": "EQ",
            "value": [
              "3"
            ]
          }
        }
      ]
    },
    {
      "name": "Analysis Sex",
      "label": "Sex, n (%)",
      "id": "AnlsGrouping_02_Asex",
      "dataDriven": false,
      "groupingDataset": "ADSL",
      "groupingVariable": "ASEX",
      "groups": [
        {
          "name": "Male",
          "label": "Male",
          "id": "AnlsGrouping_02_Asex_01",
          "level": 1,
          "order": 1,
          "condition": {
            "dataset": "ADSL",
            "variable": "ASEX",
            "comparator": "EQ",
            "value": [
              "Male"
            ]
          }
        },
        {
          "name": "Female",
          "label": "Female",
          "id": "AnlsGrouping_02_Asex_02",
          "level": 1,
          "order": 2,
          "condition": {
            "dataset": "ADSL",
            "variable": "ASEX",
            "comparator": "EQ",
            "value": [
              "Female"
            ]
          }
        },
        {
          "name": "Intersex",
          "label": "Intersex",
          "id": "AnlsGrouping_02_Asex_03",
          "level": 1,
          "order": 3,
          "condition": {
            "dataset": "ADSL",
            "variable": "ASEX",
            "comparator": "EQ",
            "value": [
              "Intersex"
            ]
          }
        },
        {
          "name": "Unknown",
          "label": "Unknown",
          "id": "AnlsGrouping_02_Asex_04",
          "level": 1,
          "order": 4,
          "condition": {
            "dataset": "ADSL",
            "variable": "ASEX",
            "comparator": "EQ",
            "value": [
              "Unknown"
            ]
          }
        }
      ]
    },
    {
      "name": "Pooled Age Group 1 (N)",
      "label": "Age groups (years), n (%)",
      "id": "AnlsGrouping_03_Agegr1N",
      "dataDriven": false,
      "groupingDataset": "ADSL",
      "groupingVariable": "AGEGR1N",
      "groups": [
        {
          "name": "<65",
          "label": "<65",
          "id": "AnlsGrouping_03_Agegr1N_01",
          "level": 1,
          "order": 1,
          "condition": {
            "dataset": "ADSL",
            "variable": "AGEGR1",
            "comparator": "EQ",
            "value": [
              "<65"
            ]
          }
        },
        {
          "name": "65-80",
          "label": "65-80",
          "id": "AnlsGrouping_03_Agegr1N_02",
          "level": 1,
          "order": 2,
          "condition": {
            "dataset": "ADSL",
            "variable": "AGEGR1",
            "comparator": "EQ",
            "value": [
              "65-80"
            ]
          }
        },
        {
          "name": ">80",
          "label": ">80",
          "id": "AnlsGrouping_03_Agegr1N_03",
          "level": 1,
          "order": 3,
          "condition": {
            "dataset": "ADSL",
            "variable": "AGEGR1",
            "comparator": "EQ",
            "value": [
              ">80"
            ]
          }
        }
      ]
    },
    {
      "name": "Analysis Race",
      "label": "Race, n (%)",
      "id": "AnlsGrouping_04_Arace",
      "dataDriven": false,
      "groupingDataset": "ADSL",
      "groupingVariable": "ARACE",
      "groups": [
        {
          "name": "American Indian or Alaska Native",
          "label": "American Indian or Alaska Native",
          "id": "AnlsGrouping_04_Arace_01",
          "level": 1,
          "order": 1,
          "condition": {
            "dataset": "ADSL",
            "variable": "ARACE",
            "comparator": "EQ",
            "value": [
              "American Indian or Alaska Native"
            ]
          }
        },
        {
          "name": "Asian",
          "label": "Asian",
          "id": "AnlsGrouping_04_Arace_02",
          "level": 1,
          "order": 2,
          "condition": {
            "dataset": "ADSL",
            "variable": "ARACE",
            "comparator": "EQ",
            "value": [
              "Asian"
            ]
          }
        },
        {
          "name": "Black or African American",
          "label": "Black or African American",
          "id": "AnlsGrouping_04_Arace_03",
          "level": 1,
          "order": 3,
          "condition": {
            "dataset": "ADSL",
            "variable": "ARACE",
            "comparator": "EQ",
            "value": [
              "Black or African American"
            ]
          }
        },
        {
          "name": "Native Hawaiian or Other Pacific Islander",
          "label": "Native Hawaiian or Other Pacific Islander",
          "id": "AnlsGrouping_04_Arace_04",
          "level": 1,
          "order": 4,
          "condition": {
            "dataset": "ADSL",
            "variable": "ARACE",
            "comparator": "EQ",
            "value": [
              "Native Hawaiian or Other Pacific Islander"
            ]
          }
        },
        {
          "name": "White",
          "label": "White",
          "id": "AnlsGrouping_04_Arace_05",
          "level": 1,
          "order": 5,
          "condition": {
            "dataset": "ADSL",
            "variable": "ARACE",
            "comparator": "EQ",
            "value": [
              "White"
            ]
          }
        },
        {
          "name": "Other",
          "label": "Other",
          "id": "AnlsGrouping_04_Arace_06",
          "level": 1,
          "order": 6,
          "condition": {
            "dataset": "ADSL",
            "variable": "ARACE",
            "comparator": "EQ",
            "value": [
              "Other"
            ]
          }
        },
        {
          "name": "Not Reported",
          "label": "Not Reported",
          "id": "AnlsGrouping_04_Arace_07",
          "level": 1,
          "order": 7,
          "condition": {
            "dataset": "ADSL",
            "variable": "ARACE",
            "comparator": "EQ",
            "value": [
              "Not Reported"
            ]
          }
        },
        {
          "name": "Unknown",
          "label": "Unknown",
          "id": "AnlsGrouping_04_Arace_08",
          "level": 1,
          "order": 8,
          "condition": {
            "dataset": "ADSL",
            "variable": "ARACE",
            "comparator": "EQ",
            "value": [
              "Unknown"
            ]
          }
        }
      ]
    },
    {
      "name": "Analysis Ethnicity",
      "label": "Ethnicity, n (%)",
      "id": "AnlsGrouping_05_Aethnic",
      "dataDriven": false,
      "groupingDataset": "ADSL",
      "groupingVariable": "AETHNIC",
      "groups": [
        {
          "name": "Hispanic or Latino",
          "label": "Hispanic or Latino",
          "id": "AnlsGrouping_05_Aethnic_01",
          "level": 1,
          "order": 1,
          "condition": {
            "dataset": "ADSL",
            "variable": "AETHNIC",
            "comparator": "EQ",
            "value": [
              "Hispanic or Latino"
            ]
          }
        },
        {
          "name": "Not Hispanic or Latino",
          "label": "Not Hispanic or Latino",
          "id": "AnlsGrouping_05_Aethnic_02",
          "level": 1,
          "order": 2,
          "condition": {
            "dataset": "ADSL",
            "variable": "AETHNIC",
            "comparator": "EQ",
            "value": [
              "Not Hispanic or Latino"
            ]
          }
        },
        {
          "name": "Not Reported",
          "label": "Not Reported",
          "id": "AnlsGrouping_05_Aethnic_03",
          "level": 1,
          "order": 3,
          "condition": {
            "dataset": "ADSL",
            "variable": "AETHNIC",
            "comparator": "EQ",
            "value": [
              "Not Reported"
            ]
          }
        },
        {
          "name": "Unknown",
          "label": "Unknown",
          "id": "AnlsGrouping_05_Aethnic_04",
          "level": 1,
          "order": 4,
          "condition": {
            "dataset": "ADSL",
            "variable": "AETHNIC",
            "comparator": "EQ",
            "value": [
              "Unknown"
            ]
          }
        }
      ]
    },
    {
      "name": "Analysis Country of Participation",
      "label": "Country of participation, n (%)",
      "id": "AnlsGrouping_06_Acountry",
      "dataDriven": true,
      "groupingDataset": "ADSL",
      "groupingVariable": "ACOUNTRY"
    }
  ],
  "methods": [
    {
      "name": "bigN",
      "description": "Grouped summary of categorical variable",
      "label": "Descriptive summary statistics across groups for a categorical variable, based on subject occurrence",
      "id": "Mth_00_1",
      "operations": [
        {
          "name": "n",
          "label": "n",
          "id": "Mth_00_1_01_n",
          "order": 1,
          "resultPattern": "(N=XX)"
        }
      ]
    },
    {
      "name": "Summary by group of a categorical variable",
      "description": "Descriptive summary statistics across groups for a categorical variable, based on subject occurrence",
      "label": "Grouped summary of categorical variable",
      "id": "Mth_03",
      "operations": [
        {
          "name": "n",
          "label": "n",
          "id": "Mth_03_01_n",
          "order": 1,
          "resultPattern": "XX"
        },
        {
          "name": "%",
          "label": "%",
          "id": "Mth_03_02_%",
          "order": 2,
          "referencedOperationRelationships": [
            {
              "id": "Mth_03_pct_NUM",
              "referencedOperationRole": {
                "controlledTerm": "NUMERATOR"
              },
              "operationId": "Mth_03_01_n",
              "description": "The numerator for the calculation of the percentage."
            },
            {
              "id": "Mth_03_pct_DEN",
              "referencedOperationRole": {
                "controlledTerm": "DENOMINATOR"
              },
              "operationId": "Mth_00_1_01_n",
              "description": "The denominator for the calculation of the percentage."
            }
          ],
          "resultPattern": "(XX.X)"
        }
      ]
    },
    {
      "name": "Summary by group of a continuous variable",
      "description": "Descriptive summary statistics across groups for a continuous variable",
      "label": "Grouped summary of continuous variable",
      "id": "Mth_06",
      "operations": [
        {
          "name": "n",
          "label": "n",
          "id": "Mth_06_01_n",
          "order": 1,
          "resultPattern": "XX"
        },
        {
          "name": "Mean",
          "label": "Mean",
          "id": "Mth_06_02_Mean",
          "order": 2,
          "resultPattern": "XX.X"
        },
        {
          "name": "SD",
          "label": "SD",
          "id": "Mth_06_03_SD",
          "order": 3,
          "resultPattern": "(XX.XX)"
        },
        {
          "name": "Median",
          "label": "Median",
          "id": "Mth_06_04_Median",
          "order": 4,
          "resultPattern": "XX.X"
        },
        {
          "name": "Q1",
          "label": "Q1",
          "id": "Mth_06_05_Q1",
          "order": 5,
          "resultPattern": "XX.X"
        },
        {
          "name": "Q3",
          "label": "Q3",
          "id": "Mth_06_06_Q3",
          "order": 6,
          "resultPattern": "XX.X"
        },
        {
          "name": "Min",
          "label": "Min",
          "id": "Mth_06_07_Min",
          "order": 7,
          "resultPattern": "XX.X"
        },
        {
          "name": "Max",
          "label": "Max",
          "id": "Mth_06_08_Max",
          "order": 8,
          "resultPattern": "XX.X"
        }
      ]
    }
  ],
  "analyses": [
    {
      "name": "Summary of Subjects by Treatment",
      "id": "An_01",
      "reason": {
        "controlledTerm": "SPECIFIED IN SAP"
      },
      "purpose": {
        "sponsorTermId": "TermEx01_01"
      },
      "methodId": "Mth_00_1",
      "version": 1,
      "categoryIds": [
        "ANSET_01",
        "ANSET_01_ANINT_04"
      ],
      "dataset": "ADSL",
      "variable": "USUBJID",
      "analysisSetId": "AnalysisSet_01",
      "orderedGroupings": [
        {
          "order": 1,
          "groupingId": "AnlsGrouping_01_Trt01An",
          "resultsByGroup": true
        }
      ],
      "results": [
        {
          "operationId": "Mth_00_1_01_n",
          "rawValue": "254",
          "formattedValue": "(N=254)"
        },
        {
          "operationId": "Mth_00_1_01_n",
          "resultGroups": [
            {
              "groupingId": "AnlsGrouping_01_Trt01An",
              "groupId": "AnlsGrouping_01_Trt01An_01"
            }
          ],
          "rawValue": "84",
          "formattedValue": "(N=84)"
        },
        {
          "operationId": "Mth_00_1_01_n",
          "resultGroups": [
            {
              "groupingId": "AnlsGrouping_01_Trt01An",
              "groupId": "AnlsGrouping_01_Trt01An_02"
            }
          ],
          "rawValue": "84",
          "formattedValue": "(N=84)"
        },
        {
          "operationId": "Mth_00_1_01_n",
          "resultGroups": [
            {
              "groupingId": "AnlsGrouping_01_Trt01An",
              "groupId": "AnlsGrouping_01_Trt01An_03"
            }
          ],
          "rawValue": "86",
          "formattedValue": "(N=86)"
        }
      ]
    },
    {
      "name": "Summary of Subjects by Treatment and Sex, n (%)",
      "id": "An_02",
      "reason": {
        "controlledTerm": "SPECIFIED IN SAP"
      },
      "purpose": {
        "sponsorTermId": "TermEx01_01"
      },
      "methodId": "Mth_03",
      "version": 1,
      "categoryIds": [
        "ANSET_01",
        "ANSET_01_ANINT_04"
      ],
      "dataset": "ADSL",
      "variable": "USUBJID",
      "analysisSetId": "AnalysisSet_01",
      "orderedGroupings": [
        {
          "order": 1,
          "groupingId": "AnlsGrouping_01_Trt01An",
          "resultsByGroup": true
        },
        {
          "order": 2,
          "groupingId": "AnlsGrouping_02_Asex",
          "resultsByGroup": true
        }
      ],
      "referencedAnalysisOperations": [
        {
          "referencedOperationRelationshipId": "Mth_03_pct_NUM",
          "analysisId": "An_02"
        },
        {
          "referencedOperationRelationshipId": "Mth_03_pct_DEN",
          "analysisId": "An_01"
        }
      ],
      "results": [
        {
          "operationId": "Mth_03_01_n",
          "resultGroups": [
            {
              "groupingId": "AnlsGrouping_01_Trt01An",
              "groupId": "AnlsGrouping_01_Trt01An_01"
            },
            {
              "groupingId": "AnlsGrouping_02_Asex",
              "groupId": "AnlsGrouping_02_Asex_01"
            }
          ],
          "rawValue": "34",
          "formattedValue": "34"
        },
        {
          "operationId": "Mth_03_01_n",
          "resultGroups": [
            {
              "groupingId": "AnlsGrouping_01_Trt01An",
              "groupId": "AnlsGrouping_01_Trt01An_01"
            },
            {
              "groupingId": "AnlsGrouping_02_Asex",
              "groupId": "AnlsGrouping_02_Asex_02"
            }
          ],
          "rawValue": "50",
          "formattedValue": "50"
        },
        {
          "operationId": "Mth_03_01_n",
          "resultGroups": [
            {
              "groupingId": "AnlsGrouping_01_Trt01An",
              "groupId": "AnlsGrouping_01_Trt01An_01"
            },
            {
              "groupingId": "AnlsGrouping_02_Asex",
              "groupId": "AnlsGrouping_02_Asex_03"
            }
          ],
          "rawValue": "0",
          "formattedValue": "0"
        },
        {
          "operationId": "Mth_03_01_n",
          "resultGroups": [
            {
              "groupingId": "AnlsGrouping_01_Trt01An",
              "groupId": "AnlsGrouping_01_Trt01An_01"
            },
            {
              "groupingId": "AnlsGrouping_02_Asex",
              "groupId": "AnlsGrouping_02_Asex_04"
            }
          ],
          "rawValue": "0",
          "formattedValue": "0"
        },
        {
          "operationId": "Mth_03_01_n",
          "resultGroups": [
            {
              "groupingId": "AnlsGrouping_01_Trt01An",
              "groupId": "AnlsGrouping_01_Trt01An_02"
            },
            {
              "groupingId": "AnlsGrouping_02_Asex",
              "groupId": "AnlsGrouping_02_Asex_01"
            }
          ],
          "rawValue": "44",
          "formattedValue": "44"
        },
        {
          "operationId": "Mth_03_01_n",
          "resultGroups": [
            {
              "groupingId": "AnlsGrouping_01_Trt01An",
              "groupId": "AnlsGrouping_01_Trt01An_02"
            },
            {
              "groupingId": "AnlsGrouping_02_Asex",
              "groupId": "AnlsGrouping_02_Asex_02"
            }
          ],
          "rawValue": "40",
          "formattedValue": "40"
        },
        {
          "operationId": "Mth_03_01_n",
          "resultGroups": [
            {
              "groupingId": "AnlsGrouping_01_Trt01An",
              "groupId": "AnlsGrouping_01_Trt01An_02"
            },
            {
              "groupingId": "AnlsGrouping_02_Asex",
              "groupId": "AnlsGrouping_02_Asex_03"
            }
          ],
          "rawValue": "0",
          "formattedValue": "0"
        },
        {
          "operationId": "Mth_03_01_n",
          "resultGroups": [
            {
              "groupingId": "AnlsGrouping_01_Trt01An",
              "groupId": "AnlsGrouping_01_Trt01An_02"
            },
            {
              "groupingId": "AnlsGrouping_02_Asex",
              "groupId": "AnlsGrouping_02_Asex_04"
            }
          ],
          "rawValue": "0",
          "formattedValue": "0"
        },
        {
          "operationId": "Mth_03_01_n",
          "resultGroups": [
            {
              "groupingId": "AnlsGrouping_01_Trt01An",
              "groupId": "AnlsGrouping_01_Trt01An_03"
            },
            {
              "groupingId": "AnlsGrouping_02_Asex",
              "groupId": "AnlsGrouping_02_Asex_01"
            }
          ],
          "rawValue": "33",
          "formattedValue": "33"
        },
        {
          "operationId": "Mth_03_01_n",
          "resultGroups": [
            {
              "groupingId": "AnlsGrouping_01_Trt01An",
              "groupId": "AnlsGrouping_01_Trt01An_03"
            },
            {
              "groupingId": "AnlsGrouping_02_Asex",
              "groupId": "AnlsGrouping_02_Asex_02"
            }
          ],
          "rawValue": "53",
          "formattedValue": "53"
        },
        {
          "operationId": "Mth_03_01_n",
          "resultGroups": [
            {
              "groupingId": "AnlsGrouping_01_Trt01An",
              "groupId": "AnlsGrouping_01_Trt01An_03"
            },
            {
              "groupingId": "AnlsGrouping_02_Asex",
              "groupId": "AnlsGrouping_02_Asex_03"
            }
          ],
          "rawValue": "0",
          "formattedValue": "0"
        },
        {
          "operationId": "Mth_03_01_n",
          "resultGroups": [
            {
              "groupingId": "AnlsGrouping_01_Trt01An",
              "groupId": "AnlsGrouping_01_Trt01An_03"
            },
            {
              "groupingId": "AnlsGrouping_02_Asex",
              "groupId": "AnlsGrouping_02_Asex_04"
            }
          ],
          "rawValue": "0",
          "formattedValue": "0"
        },
        {
          "operationId": "Mth_03_02_%",
          "resultGroups": [
            {
              "groupingId": "AnlsGrouping_01_Trt01An",
              "groupId": "AnlsGrouping_01_Trt01An_01"
            },
            {
              "groupingId": "AnlsGrouping_02_Asex",
              "groupId": "AnlsGrouping_02_Asex_01"
            }
          ],
          "rawValue": "40.476190476",
          "formattedValue": "(40.5)"
        },
        {
          "operationId": "Mth_03_02_%",
          "resultGroups": [
            {
              "groupingId": "AnlsGrouping_01_Trt01An",
              "groupId": "AnlsGrouping_01_Trt01An_01"
            },
            {
              "groupingId": "AnlsGrouping_02_Asex",
              "groupId": "AnlsGrouping_02_Asex_02"
            }
          ],
          "rawValue": "59.523809524",
          "formattedValue": "(59.5)"
        },
        {
          "operationId": "Mth_03_02_%",
          "resultGroups": [
            {
              "groupingId": "AnlsGrouping_01_Trt01An",
              "groupId": "AnlsGrouping_01_Trt01An_01"
            },
            {
              "groupingId": "AnlsGrouping_02_Asex",
              "groupId": "AnlsGrouping_02_Asex_03"
            }
          ],
          "rawValue": "0",
          "formattedValue": "(0.0)"
        },
        {
          "operationId": "Mth_03_02_%",
          "resultGroups": [
            {
              "groupingId": "AnlsGrouping_01_Trt01An",
              "groupId": "AnlsGrouping_01_Trt01An_01"
            },
            {
              "groupingId": "AnlsGrouping_02_Asex",
              "groupId": "AnlsGrouping_02_Asex_04"
            }
          ],
          "rawValue": "0",
          "formattedValue": "(0.0)"
        },
        {
          "operationId": "Mth_03_02_%",
          "resultGroups": [
            {
              "groupingId": "AnlsGrouping_01_Trt01An",
              "groupId": "AnlsGrouping_01_Trt01An_02"
            },
            {
              "groupingId": "AnlsGrouping_02_Asex",
              "groupId": "AnlsGrouping_02_Asex_01"
            }
          ],
          "rawValue": "52.380952381",
          "formattedValue": "(52.4)"
        },
        {
          "operationId": "Mth_03_02_%",
          "resultGroups": [
            {
              "groupingId": "AnlsGrouping_01_Trt01An",
              "groupId": "AnlsGrouping_01_Trt01An_02"
            },
            {
              "groupingId": "AnlsGrouping_02_Asex",
              "groupId": "AnlsGrouping_02_Asex_02"
            }
          ],
          "rawValue": "47.619047619",
          "formattedValue": "(47.6)"
        },
        {
          "operationId": "Mth_03_02_%",
          "resultGroups": [
            {
              "groupingId": "AnlsGrouping_01_Trt01An",
              "groupId": "AnlsGrouping_01_Trt01An_02"
            },
            {
              "groupingId": "AnlsGrouping_02_Asex",
              "groupId": "AnlsGrouping_02_Asex_03"
            }
          ],
          "rawValue": "0",
          "formattedValue": "(0.0)"
        },
        {
          "operationId": "Mth_03_02_%",
          "resultGroups": [
            {
              "groupingId": "AnlsGrouping_01_Trt01An",
              "groupId": "AnlsGrouping_01_Trt01An_02"
            },
            {
              "groupingId": "AnlsGrouping_02_Asex",
              "groupId": "AnlsGrouping_02_Asex_04"
            }
          ],
          "rawValue": "0",
          "formattedValue": "(0.0)"
        },
        {
          "operationId": "Mth_03_02_%",
          "resultGroups": [
            {
              "groupingId": "AnlsGrouping_01_Trt01An",
              "groupId": "AnlsGrouping_01_Trt01An_03"
            },
            {
              "groupingId": "AnlsGrouping_02_Asex",
              "groupId": "AnlsGrouping_02_Asex_01"
            }
          ],
          "rawValue": "38.372093023",
          "formattedValue": "(38.4)"
        },
        {
          "operationId": "Mth_03_02_%",
          "resultGroups": [
            {
              "groupingId": "AnlsGrouping_01_Trt01An",
              "groupId": "AnlsGrouping_01_Trt01An_03"
            },
            {
              "groupingId": "AnlsGrouping_02_Asex",
              "groupId": "AnlsGrouping_02_Asex_02"
            }
          ],
          "rawValue": "61.627906977",
          "formattedValue": "(61.6)"
        },
        {
          "operationId": "Mth_03_02_%",
          "resultGroups": [
            {
              "groupingId": "AnlsGrouping_01_Trt01An",
              "groupId": "AnlsGrouping_01_Trt01An_03"
            },
            {
              "groupingId": "AnlsGrouping_02_Asex",
              "groupId": "AnlsGrouping_02_Asex_03"
            }
          ],
          "rawValue": "0",
          "formattedValue": "(0.0)"
        },
        {
          "operationId": "Mth_03_02_%",
          "resultGroups": [
            {
              "groupingId": "AnlsGrouping_01_Trt01An",
              "groupId": "AnlsGrouping_01_Trt01An_03"
            },
            {
              "groupingId": "AnlsGrouping_02_Asex",
              "groupId": "AnlsGrouping_02_Asex_04"
            }
          ],
          "rawValue": "0",
          "formattedValue": "(0.0)"
        }
      ]
    },
    {
      "name": "Summary of Subjects by Sex, n (%)",
      "id": "An_02_Total",
      "reason": {
        "controlledTerm": "SPECIFIED IN SAP"
      },
      "purpose": {
        "sponsorTermId": "TermEx01_01"
      },
      "methodId": "Mth_03",
      "version": 1,
      "categoryIds": [
        "ANSET_01",
        "ANSET_01_ANINT_04"
      ],
      "dataset": "ADSL",
      "variable": "USUBJID",
      "analysisSetId": "AnalysisSet_01",
      "dataSubsetId": "Dss_28",
      "orderedGroupings": [
        {
          "order": 1,
          "groupingId": "AnlsGrouping_02_Asex",
          "resultsByGroup": true
        }
      ],
      "referencedAnalysisOperations": [
        {
          "referencedOperationRelationshipId": "Mth_03_pct_NUM",
          "analysisId": "An_02_Total"
        },
        {
          "referencedOperationRelationshipId": "Mth_03_pct_DEN",
          "analysisId": "An_01"
        }
      ],
      "results": [
        {
          "operationId": "Mth_03_01_n",
          "resultGroups": [
            {
              "groupingId": "AnlsGrouping_02_Asex",
              "groupId": "AnlsGrouping_02_Asex_01"
            }
          ],
          "rawValue": "111",
          "formattedValue": "111"
        },
        {
          "operationId": "Mth_03_01_n",
          "resultGroups": [
            {
              "groupingId": "AnlsGrouping_02_Asex",
              "groupId": "AnlsGrouping_02_Asex_02"
            }
          ],
          "rawValue": "143",
          "formattedValue": "143"
        },
        {
          "operationId": "Mth_03_01_n",
          "resultGroups": [
            {
              "groupingId": "AnlsGrouping_02_Asex",
              "groupId": "AnlsGrouping_02_Asex_03"
            }
          ],
          "rawValue": "0",
          "formattedValue": "0"
        },
        {
          "operationId": "Mth_03_01_n",
          "resultGroups": [
            {
              "groupingId": "AnlsGrouping_02_Asex",
              "groupId": "AnlsGrouping_02_Asex_04"
            }
          ],
          "rawValue": "0",
          "formattedValue": "0"
        },
        {
          "operationId": "Mth_03_02_%",
          "resultGroups": [
            {
              "groupingId": "AnlsGrouping_02_Asex",
              "groupId": "AnlsGrouping_02_Asex_01"
            }
          ],
          "rawValue": "43.700787402",
          "formattedValue": "(43.7)"
        },
        {
          "operationId": "Mth_03_02_%",
          "resultGroups": [
            {
              "groupingId": "AnlsGrouping_02_Asex",
              "groupId": "AnlsGrouping_02_Asex_02"
            }
          ],
          "rawValue": "56.299212598",
          "formattedValue": "(56.3)"
        },
        {
          "operationId": "Mth_03_02_%",
          "resultGroups": [
            {
              "groupingId": "AnlsGrouping_02_Asex",
              "groupId": "AnlsGrouping_02_Asex_03"
            }
          ],
          "rawValue": "0",
          "formattedValue": "(0.0)"
        },
        {
          "operationId": "Mth_03_02_%",
          "resultGroups": [
            {
              "groupingId": "AnlsGrouping_02_Asex",
              "groupId": "AnlsGrouping_02_Asex_04"
            }
          ],
          "rawValue": "0",
          "formattedValue": "(0.0)"
        }
      ]
    },
    {
      "name": "Summary of Age, Years by Treatment",
      "id": "An_03",
      "reason": {
        "controlledTerm": "SPECIFIED IN SAP"
      },
      "purpose": {
        "sponsorTermId": "TermEx01_01"
      },
      "methodId": "Mth_06",
      "version": 1,
      "categoryIds": [
        "ANSET_01",
        "ANSET_01_ANINT_04"
      ],
      "dataset": "ADSL",
      "variable": "AGE",
      "analysisSetId": "AnalysisSet_01",
      "orderedGroupings": [
        {
          "order": 1,
          "groupingId": "AnlsGrouping_01_Trt01An",
          "resultsByGroup": true
        }
      ],
      "results": [
        {
          "operationId": "Mth_06_01_n",
          "resultGroups": [
            {
              "groupingId": "AnlsGrouping_01_Trt01An",
              "groupId": "AnlsGrouping_01_Trt01An_01"
            }
          ],
          "rawValue": "84",
          "formattedValue": "84"
        },
        {
          "operationId": "Mth_06_01_n",
          "resultGroups": [
            {
              "groupingId": "AnlsGrouping_01_Trt01An",
              "groupId": "AnlsGrouping_01_Trt01An_02"
            }
          ],
          "rawValue": "84",
          "formattedValue": "84"
        },
        {
          "operationId": "Mth_06_01_n",
          "resultGroups": [
            {
              "groupingId": "AnlsGrouping_01_Trt01An",
              "groupId": "AnlsGrouping_01_Trt01An_03"
            }
          ],
          "rawValue": "86",
          "formattedValue": "86"
        },
        {
          "operationId": "Mth_06_02_Mean",
          "resultGroups": [
            {
              "groupingId": "AnlsGrouping_01_Trt01An",
              "groupId": "AnlsGrouping_01_Trt01An_01"
            }
          ],
          "rawValue": "75.666666667",
          "formattedValue": "75.7"
        },
        {
          "operationId": "Mth_06_02_Mean",
          "resultGroups": [
            {
              "groupingId": "AnlsGrouping_01_Trt01An",
              "groupId": "AnlsGrouping_01_Trt01An_02"
            }
          ],
          "rawValue": "74.380952381",
          "formattedValue": "74.4"
        },
        {
          "operationId": "Mth_06_02_Mean",
          "resultGroups": [
            {
              "groupingId": "AnlsGrouping_01_Trt01An",
              "groupId": "AnlsGrouping_01_Trt01An_03"
            }
          ],
          "rawValue": "75.209302326",
          "formattedValue": "75.2"
        },
        {
          "operationId": "Mth_06_03_SD",
          "resultGroups": [
            {
              "groupingId": "AnlsGrouping_01_Trt01An",
              "groupId": "AnlsGrouping_01_Trt01An_01"
            }
          ],
          "rawValue": "8.2860505995",
          "formattedValue": "(8.29)"
        },
        {
          "operationId": "Mth_06_03_SD",
          "resultGroups": [
            {
              "groupingId": "AnlsGrouping_01_Trt01An",
              "groupId": "AnlsGrouping_01_Trt01An_02"
            }
          ],
          "rawValue": "7.8860938487",
          "formattedValue": "(7.89)"
        },
        {
          "operationId": "Mth_06_03_SD",
          "resultGroups": [
            {
              "groupingId": "AnlsGrouping_01_Trt01An",
              "groupId": "AnlsGrouping_01_Trt01An_03"
            }
          ],
          "rawValue": "8.5901671271",
          "formattedValue": "(8.59)"
        },
        {
          "operationId": "Mth_06_04_Median",
          "resultGroups": [
            {
              "groupingId": "AnlsGrouping_01_Trt01An",
              "groupId": "AnlsGrouping_01_Trt01An_01"
            }
          ],
          "rawValue": "77.5",
          "formattedValue": "77.5"
        },
        {
          "operationId": "Mth_06_04_Median",
          "resultGroups": [
            {
              "groupingId": "AnlsGrouping_01_Trt01An",
              "groupId": "AnlsGrouping_01_Trt01An_02"
            }
          ],
          "rawValue": "76",
          "formattedValue": "76.0"
        },
        {
          "operationId": "Mth_06_04_Median",
          "resultGroups": [
            {
              "groupingId": "AnlsGrouping_01_Trt01An",
              "groupId": "AnlsGrouping_01_Trt01An_03"
            }
          ],
          "rawValue": "76",
          "formattedValue": "76.0"
        },
        {
          "operationId": "Mth_06_07_Min",
          "resultGroups": [
            {
              "groupingId": "AnlsGrouping_01_Trt01An",
              "groupId": "AnlsGrouping_01_Trt01An_01"
            }
          ],
          "rawValue": "51",
          "formattedValue": "51"
        },
        {
          "operationId": "Mth_06_07_Min",
          "resultGroups": [
            {
              "groupingId": "AnlsGrouping_01_Trt01An",
              "groupId": "AnlsGrouping_01_Trt01An_02"
            }
          ],
          "rawValue": "56",
          "formattedValue": "56"
        },
        {
          "operationId": "Mth_06_07_Min",
          "resultGroups": [
            {
              "groupingId": "AnlsGrouping_01_Trt01An",
              "groupId": "AnlsGrouping_01_Trt01An_03"
            }
          ],
          "rawValue": "52",
          "formattedValue": "52"
        },
        {
          "operationId": "Mth_06_08_Max",
          "resultGroups": [
            {
              "groupingId": "AnlsGrouping_01_Trt01An",
              "groupId": "AnlsGrouping_01_Trt01An_01"
            }
          ],
          "rawValue": "88",
          "formattedValue": "88"
        },
        {
          "operationId": "Mth_06_08_Max",
          "resultGroups": [
            {
              "groupingId": "AnlsGrouping_01_Trt01An",
              "groupId": "AnlsGrouping_01_Trt01An_02"
            }
          ],
          "rawValue": "88",
          "formattedValue": "88"
        },
        {
          "operationId": "Mth_06_08_Max",
          "resultGroups": [
            {
              "groupingId": "AnlsGrouping_01_Trt01An",
              "groupId": "AnlsGrouping_01_Trt01An_03"
            }
          ],
          "rawValue": "89",
          "formattedValue": "89"
        }
      ]
    },
    {
      "name": "Summary of Age, Years",
      "id": "An_03_Total",
      "reason": {
        "controlledTerm": "SPECIFIED IN SAP"
      },
      "purpose": {
        "sponsorTermId": "TermEx01_01"
      },
      "methodId": "Mth_06",
      "version": 1,
      "categoryIds": [
        "ANSET_01",
        "ANSET_01_ANINT_04"
      ],
      "dataset": "ADSL",
      "variable": "AGE",
      "analysisSetId": "AnalysisSet_01",
      "dataSubsetId": "Dss_28",
      "results": [
        {
          "operationId": "Mth_06_01_n",
          "rawValue": "254",
          "formattedValue": "254"
        },
        {
          "operationId": "Mth_06_02_Mean",
          "rawValue": "75.086614173",
          "formattedValue": "75.1"
        },
        {
          "operationId": "Mth_06_03_SD",
          "rawValue": "8.2462338962",
          "formattedValue": "(8.25)"
        },
        {
          "operationId": "Mth_06_04_Median",
          "rawValue": "77",
          "formattedValue": "77.0"
        },
        {
          "operationId": "Mth_06_07_Min",
          "rawValue": "51",
          "formattedValue": "51"
        },
        {
          "operationId": "Mth_06_08_Max",
          "rawValue": "89",
          "formattedValue": "89"
        }
      ]
    },
    {
      "name": "Summary of Subjects by Treatment and Age groups (years), n (%)",
      "id": "An_04",
      "reason": {
        "controlledTerm": "SPECIFIED IN SAP"
      },
      "purpose": {
        "sponsorTermId": "TermEx01_01"
      },
      "methodId": "Mth_03",
      "version": 1,
      "categoryIds": [
        "ANSET_01",
        "ANSET_01_ANINT_04"
      ],
      "dataset": "ADSL",
      "variable": "USUBJID",
      "analysisSetId": "AnalysisSet_01",
      "orderedGroupings": [
        {
          "order": 1,
          "groupingId": "AnlsGrouping_01_Trt01An",
          "resultsByGroup": true
        },
        {
          "order": 2,
          "groupingId": "AnlsGrouping_03_Agegr1N",
          "resultsByGroup": true
        }
      ],
      "referencedAnalysisOperations": [
        {
          "referencedOperationRelationshipId": "Mth_03_pct_NUM",
          "analysisId": "An_04"
        },
        {
          "referencedOperationRelationshipId": "Mth_03_pct_DEN",
          "analysisId": "An_01"
        }
      ],
      "results": [
        {
          "operationId": "Mth_03_01_n",
          "resultGroups": [
            {
              "groupingId": "AnlsGrouping_01_Trt01An",
              "groupId": "AnlsGrouping_01_Trt01An_01"
            },
            {
              "groupingId": "AnlsGrouping_03_Agegr1N",
              "groupId": "AnlsGrouping_03_Agegr1N_01"
            }
          ],
          "rawValue": "8",
          "formattedValue": "8"
        },
        {
          "operationId": "Mth_03_01_n",
          "resultGroups": [
            {
              "groupingId": "AnlsGrouping_01_Trt01An",
              "groupId": "AnlsGrouping_01_Trt01An_01"
            },
            {
              "groupingId": "AnlsGrouping_03_Agegr1N",
              "groupId": "AnlsGrouping_03_Agegr1N_02"
            }
          ],
          "rawValue": "47",
          "formattedValue": "47"
        },
        {
          "operationId": "Mth_03_01_n",
          "resultGroups": [
            {
              "groupingId": "AnlsGrouping_01_Trt01An",
              "groupId": "AnlsGrouping_01_Trt01An_01"
            },
            {
              "groupingId": "AnlsGrouping_03_Agegr1N",
              "groupId": "AnlsGrouping_03_Agegr1N_03"
            }
          ],
          "rawValue": "29",
          "formattedValue": "29"
        },
        {
          "operationId": "Mth_03_01_n",
          "resultGroups": [
            {
              "groupingId": "AnlsGrouping_01_Trt01An",
              "groupId": "AnlsGrouping_01_Trt01An_02"
            },
            {
              "groupingId": "AnlsGrouping_03_Agegr1N",
              "groupId": "AnlsGrouping_03_Agegr1N_01"
            }
          ],
          "rawValue": "11",
          "formattedValue": "11"
        },
        {
          "operationId": "Mth_03_01_n",
          "resultGroups": [
            {
              "groupingId": "AnlsGrouping_01_Trt01An",
              "groupId": "AnlsGrouping_01_Trt01An_02"
            },
            {
              "groupingId": "AnlsGrouping_03_Agegr1N",
              "groupId": "AnlsGrouping_03_Agegr1N_02"
            }
          ],
          "rawValue": "55",
          "formattedValue": "55"
        },
        {
          "operationId": "Mth_03_01_n",
          "resultGroups": [
            {
              "groupingId": "AnlsGrouping_01_Trt01An",
              "groupId": "AnlsGrouping_01_Trt01An_02"
            },
            {
              "groupingId": "AnlsGrouping_03_Agegr1N",
              "groupId": "AnlsGrouping_03_Agegr1N_03"
            }
          ],
          "rawValue": "18",
          "formattedValue": "18"
        },
        {
          "operationId": "Mth_03_01_n",
          "resultGroups": [
            {
              "groupingId": "AnlsGrouping_01_Trt01An",
              "groupId": "AnlsGrouping_01_Trt01An_03"
            },
            {
              "groupingId": "AnlsGrouping_03_Agegr1N",
              "groupId": "AnlsGrouping_03_Agegr1N_01"
            }
          ],
          "rawValue": "14",
          "formattedValue": "14"
        },
        {
          "operationId": "Mth_03_01_n",
          "resultGroups": [
            {
              "groupingId": "AnlsGrouping_01_Trt01An",
              "groupId": "AnlsGrouping_01_Trt01An_03"
            },
            {
              "groupingId": "AnlsGrouping_03_Agegr1N",
              "groupId": "AnlsGrouping_03_Agegr1N_02"
            }
          ],
          "rawValue": "42",
          "formattedValue": "42"
        },
        {
          "operationId": "Mth_03_01_n",
          "resultGroups": [
            {
              "groupingId": "AnlsGrouping_01_Trt01An",
              "groupId": "AnlsGrouping_01_Trt01An_03"
            },
            {
              "groupingId": "AnlsGrouping_03_Agegr1N",
              "groupId": "AnlsGrouping_03_Agegr1N_03"
            }
          ],
          "rawValue": "30",
          "formattedValue": "30"
        },
        {
          "operationId": "Mth_03_02_%",
          "resultGroups": [
            {
              "groupingId": "AnlsGrouping_01_Trt01An",
              "groupId": "AnlsGrouping_01_Trt01An_01"
            },
            {
              "groupingId": "AnlsGrouping_03_Agegr1N",
              "groupId": "AnlsGrouping_03_Agegr1N_01"
            }
          ],
          "rawValue": "9.5238095238",
          "formattedValue": "(9.5)"
        },
        {
          "operationId": "Mth_03_02_%",
          "resultGroups": [
            {
              "groupingId": "AnlsGrouping_01_Trt01An",
              "groupId": "AnlsGrouping_01_Trt01An_01"
            },
            {
              "groupingId": "AnlsGrouping_03_Agegr1N",
              "groupId": "AnlsGrouping_03_Agegr1N_02"
            }
          ],
          "rawValue": "55.952380952",
          "formattedValue": "(56.0)"
        },
        {
          "operationId": "Mth_03_02_%",
          "resultGroups": [
            {
              "groupingId": "AnlsGrouping_01_Trt01An",
              "groupId": "AnlsGrouping_01_Trt01An_01"
            },
            {
              "groupingId": "AnlsGrouping_03_Agegr1N",
              "groupId": "AnlsGrouping_03_Agegr1N_03"
            }
          ],
          "rawValue": "34.523809524",
          "formattedValue": "(34.5)"
        },
        {
          "operationId": "Mth_03_02_%",
          "resultGroups": [
            {
              "groupingId": "AnlsGrouping_01_Trt01An",
              "groupId": "AnlsGrouping_01_Trt01An_02"
            },
            {
              "groupingId": "AnlsGrouping_03_Agegr1N",
              "groupId": "AnlsGrouping_03_Agegr1N_01"
            }
          ],
          "rawValue": "13.095238095",
          "formattedValue": "(13.1)"
        },
        {
          "operationId": "Mth_03_02_%",
          "resultGroups": [
            {
              "groupingId": "AnlsGrouping_01_Trt01An",
              "groupId": "AnlsGrouping_01_Trt01An_02"
            },
            {
              "groupingId": "AnlsGrouping_03_Agegr1N",
              "groupId": "AnlsGrouping_03_Agegr1N_02"
            }
          ],
          "rawValue": "65.476190476",
          "formattedValue": "(65.5)"
        },
        {
          "operationId": "Mth_03_02_%",
          "resultGroups": [
            {
              "groupingId": "AnlsGrouping_01_Trt01An",
              "groupId": "AnlsGrouping_01_Trt01An_02"
            },
            {
              "groupingId": "AnlsGrouping_03_Agegr1N",
              "groupId": "AnlsGrouping_03_Agegr1N_03"
            }
          ],
          "rawValue": "21.428571429",
          "formattedValue": "(21.4)"
        },
        {
          "operationId": "Mth_03_02_%",
          "resultGroups": [
            {
              "groupingId": "AnlsGrouping_01_Trt01An",
              "groupId": "AnlsGrouping_01_Trt01An_03"
            },
            {
              "groupingId": "AnlsGrouping_03_Agegr1N",
              "groupId": "AnlsGrouping_03_Agegr1N_01"
            }
          ],
          "rawValue": "16.279069767",
          "formattedValue": "(16.3)"
        },
        {
          "operationId": "Mth_03_02_%",
          "resultGroups": [
            {
              "groupingId": "AnlsGrouping_01_Trt01An",
              "groupId": "AnlsGrouping_01_Trt01An_03"
            },
            {
              "groupingId": "AnlsGrouping_03_Agegr1N",
              "groupId": "AnlsGrouping_03_Agegr1N_02"
            }
          ],
          "rawValue": "48.837209302",
          "formattedValue": "(48.8)"
        },
        {
          "operationId": "Mth_03_02_%",
          "resultGroups": [
            {
              "groupingId": "AnlsGrouping_01_Trt01An",
              "groupId": "AnlsGrouping_01_Trt01An_03"
            },
            {
              "groupingId": "AnlsGrouping_03_Agegr1N",
              "groupId": "AnlsGrouping_03_Agegr1N_03"
            }
          ],
          "rawValue": "34.88372093",
          "formattedValue": "(34.9)"
        }
      ]
    },
    {
      "name": "Summary of Subjects by Age groups (years), n (%)",
      "id": "An_04_Total",
      "reason": {
        "controlledTerm": "SPECIFIED IN SAP"
      },
      "purpose": {
        "sponsorTermId": "TermEx01_01"
      },
      "methodId": "Mth_03",
      "version": 1,
      "categoryIds": [
        "ANSET_01",
        "ANSET_01_ANINT_04"
      ],
      "dataset": "ADSL",
      "variable": "USUBJID",
      "analysisSetId": "AnalysisSet_01",
      "dataSubsetId": "Dss_28",
      "orderedGroupings": [
        {
          "order": 1,
          "groupingId": "AnlsGrouping_03_Agegr1N",
          "resultsByGroup": true
        }
      ],
      "referencedAnalysisOperations": [
        {
          "referencedOperationRelationshipId": "Mth_03_pct_NUM",
          "analysisId": "An_04_Total"
        },
        {
          "referencedOperationRelationshipId": "Mth_03_pct_DEN",
          "analysisId": "An_01"
        }
      ],
      "results": [
        {
          "operationId": "Mth_03_01_n",
          "resultGroups": [
            {
              "groupingId": "AnlsGrouping_03_Agegr1N",
              "groupId": "AnlsGrouping_03_Agegr1N_01"
            }
          ],
          "rawValue": "33",
          "formattedValue": "33"
        },
        {
          "operationId": "Mth_03_01_n",
          "resultGroups": [
            {
              "groupingId": "AnlsGrouping_03_Agegr1N",
              "groupId": "AnlsGrouping_03_Agegr1N_02"
            }
          ],
          "rawValue": "144",
          "formattedValue": "144"
        },
        {
          "operationId": "Mth_03_01_n",
          "resultGroups": [
            {
              "groupingId": "AnlsGrouping_03_Agegr1N",
              "groupId": "AnlsGrouping_03_Agegr1N_03"
            }
          ],
          "rawValue": "77",
          "formattedValue": "77"
        },
        {
          "operationId": "Mth_03_02_%",
          "resultGroups": [
            {
              "groupingId": "AnlsGrouping_03_Agegr1N",
              "groupId": "AnlsGrouping_03_Agegr1N_01"
            }
          ],
          "rawValue": "12.992125984",
          "formattedValue": "(13.0)"
        },
        {
          "operationId": "Mth_03_02_%",
          "resultGroups": [
            {
              "groupingId": "AnlsGrouping_03_Agegr1N",
              "groupId": "AnlsGrouping_03_Agegr1N_02"
            }
          ],
          "rawValue": "56.692913386",
          "formattedValue": "(56.7)"
        },
        {
          "operationId": "Mth_03_02_%",
          "resultGroups": [
            {
              "groupingId": "AnlsGrouping_03_Agegr1N",
              "groupId": "AnlsGrouping_03_Agegr1N_03"
            }
          ],
          "rawValue": "30.31496063",
          "formattedValue": "(30.3)"
        }
      ]
    },
    {
      "name": "Summary of Subjects by Treatment and Race, n (%)",
      "id": "An_05",
      "reason": {
        "controlledTerm": "SPECIFIED IN SAP"
      },
      "purpose": {
        "sponsorTermId": "TermEx01_01"
      },
      "methodId": "Mth_03",
      "version": 1,
      "categoryIds": [
        "ANSET_01",
        "ANSET_01_ANINT_04"
      ],
      "dataset": "ADSL",
      "variable": "USUBJID",
      "analysisSetId": "AnalysisSet_01",
      "orderedGroupings": [
        {
          "order": 1,
          "groupingId": "AnlsGrouping_01_Trt01An",
          "resultsByGroup": true
        },
        {
          "order": 2,
          "groupingId": "AnlsGrouping_04_Arace",
          "resultsByGroup": true
        }
      ],
      "referencedAnalysisOperations": [
        {
          "referencedOperationRelationshipId": "Mth_03_pct_NUM",
          "analysisId": "An_05"
        },
        {
          "referencedOperationRelationshipId": "Mth_03_pct_DEN",
          "analysisId": "An_01"
        }
      ],
      "results": [
        {
          "operationId": "Mth_03_01_n",
          "resultGroups": [
            {
              "groupingId": "AnlsGrouping_01_Trt01An",
              "groupId": "AnlsGrouping_01_Trt01An_01"
            },
            {
              "groupingId": "AnlsGrouping_04_Arace",
              "groupId": "AnlsGrouping_04_Arace_02"
            }
          ],
          "rawValue": "0",
          "formattedValue": "0"
        },
        {
          "operationId": "Mth_03_01_n",
          "resultGroups": [
            {
              "groupingId": "AnlsGrouping_01_Trt01An",
              "groupId": "AnlsGrouping_01_Trt01An_01"
            },
            {
              "groupingId": "AnlsGrouping_04_Arace",
              "groupId": "AnlsGrouping_04_Arace_03"
            }
          ],
          "rawValue": "6",
          "formattedValue": "6"
        },
        {
          "operationId": "Mth_03_01_n",
          "resultGroups": [
            {
              "groupingId": "AnlsGrouping_01_Trt01An",
              "groupId": "AnlsGrouping_01_Trt01An_01"
            },
            {
              "groupingId": "AnlsGrouping_04_Arace",
              "groupId": "AnlsGrouping_04_Arace_03"
            }
          ],
          "rawValue": "0",
          "formattedValue": "0"
        },
        {
          "operationId": "Mth_03_01_n",
          "resultGroups": [
            {
              "groupingId": "AnlsGrouping_01_Trt01An",
              "groupId": "AnlsGrouping_01_Trt01An_01"
            },
            {
              "groupingId": "AnlsGrouping_04_Arace",
              "groupId": "AnlsGrouping_04_Arace_04"
            }
          ],
          "rawValue": "0",
          "formattedValue": "0"
        },
        {
          "operationId": "Mth_03_01_n",
          "resultGroups": [
            {
              "groupingId": "AnlsGrouping_01_Trt01An",
              "groupId": "AnlsGrouping_01_Trt01An_01"
            },
            {
              "groupingId": "AnlsGrouping_04_Arace",
              "groupId": "AnlsGrouping_04_Arace_04"
            }
          ],
          "rawValue": "0",
          "formattedValue": "0"
        },
        {
          "operationId": "Mth_03_01_n",
          "resultGroups": [
            {
              "groupingId": "AnlsGrouping_01_Trt01An",
              "groupId": "AnlsGrouping_01_Trt01An_01"
            },
            {
              "groupingId": "AnlsGrouping_04_Arace",
              "groupId": "AnlsGrouping_04_Arace_05"
            }
          ],
          "rawValue": "78",
          "formattedValue": "78"
        },
        {
          "operationId": "Mth_03_01_n",
          "resultGroups": [
            {
              "groupingId": "AnlsGrouping_01_Trt01An",
              "groupId": "AnlsGrouping_01_Trt01An_01"
            },
            {
              "groupingId": "AnlsGrouping_04_Arace",
              "groupId": "AnlsGrouping_04_Arace_06"
            }
          ],
          "rawValue": "0",
          "formattedValue": "0"
        },
        {
          "operationId": "Mth_03_01_n",
          "resultGroups": [
            {
              "groupingId": "AnlsGrouping_01_Trt01An",
              "groupId": "AnlsGrouping_01_Trt01An_02"
            },
            {
              "groupingId": "AnlsGrouping_04_Arace",
              "groupId": "AnlsGrouping_04_Arace_01"
            }
          ],
          "rawValue": "1",
          "formattedValue": "1"
        },
        {
          "operationId": "Mth_03_01_n",
          "resultGroups": [
            {
              "groupingId": "AnlsGrouping_01_Trt01An",
              "groupId": "AnlsGrouping_01_Trt01An_02"
            },
            {
              "groupingId": "AnlsGrouping_04_Arace",
              "groupId": "AnlsGrouping_04_Arace_02"
            }
          ],
          "rawValue": "0",
          "formattedValue": "0"
        },
        {
          "operationId": "Mth_03_01_n",
          "resultGroups": [
            {
              "groupingId": "AnlsGrouping_01_Trt01An",
              "groupId": "AnlsGrouping_01_Trt01An_02"
            },
            {
              "groupingId": "AnlsGrouping_04_Arace",
              "groupId": "AnlsGrouping_04_Arace_03"
            }
          ],
          "rawValue": "9",
          "formattedValue": "9"
        },
        {
          "operationId": "Mth_03_01_n",
          "resultGroups": [
            {
              "groupingId": "AnlsGrouping_01_Trt01An",
              "groupId": "AnlsGrouping_01_Trt01An_02"
            },
            {
              "groupingId": "AnlsGrouping_04_Arace",
              "groupId": "AnlsGrouping_04_Arace_03"
            }
          ],
          "rawValue": "0",
          "formattedValue": "0"
        },
        {
          "operationId": "Mth_03_01_n",
          "resultGroups": [
            {
              "groupingId": "AnlsGrouping_01_Trt01An",
              "groupId": "AnlsGrouping_01_Trt01An_02"
            },
            {
              "groupingId": "AnlsGrouping_04_Arace",
              "groupId": "AnlsGrouping_04_Arace_04"
            }
          ],
          "rawValue": "0",
          "formattedValue": "0"
        },
        {
          "operationId": "Mth_03_01_n",
          "resultGroups": [
            {
              "groupingId": "AnlsGrouping_01_Trt01An",
              "groupId": "AnlsGrouping_01_Trt01An_02"
            },
            {
              "groupingId": "AnlsGrouping_04_Arace",
              "groupId": "AnlsGrouping_04_Arace_05"
            }
          ],
          "rawValue": "74",
          "formattedValue": "74"
        },
        {
          "operationId": "Mth_03_01_n",
          "resultGroups": [
            {
              "groupingId": "AnlsGrouping_01_Trt01An",
              "groupId": "AnlsGrouping_01_Trt01An_02"
            },
            {
              "groupingId": "AnlsGrouping_04_Arace",
              "groupId": "AnlsGrouping_04_Arace_06"
            }
          ],
          "rawValue": "0",
          "formattedValue": "0"
        },
        {
          "operationId": "Mth_03_01_n",
          "resultGroups": [
            {
              "groupingId": "AnlsGrouping_01_Trt01An",
              "groupId": "AnlsGrouping_01_Trt01An_03"
            },
            {
              "groupingId": "AnlsGrouping_04_Arace",
              "groupId": "AnlsGrouping_04_Arace_02"
            }
          ],
          "rawValue": "0",
          "formattedValue": "0"
        },
        {
          "operationId": "Mth_03_01_n",
          "resultGroups": [
            {
              "groupingId": "AnlsGrouping_01_Trt01An",
              "groupId": "AnlsGrouping_01_Trt01An_03"
            },
            {
              "groupingId": "AnlsGrouping_04_Arace",
              "groupId": "AnlsGrouping_04_Arace_03"
            }
          ],
          "rawValue": "8",
          "formattedValue": "8"
        },
        {
          "operationId": "Mth_03_01_n",
          "resultGroups": [
            {
              "groupingId": "AnlsGrouping_01_Trt01An",
              "groupId": "AnlsGrouping_01_Trt01An_03"
            },
            {
              "groupingId": "AnlsGrouping_04_Arace",
              "groupId": "AnlsGrouping_04_Arace_03"
            }
          ],
          "rawValue": "0",
          "formattedValue": "0"
        },
        {
          "operationId": "Mth_03_01_n",
          "resultGroups": [
            {
              "groupingId": "AnlsGrouping_01_Trt01An",
              "groupId": "AnlsGrouping_01_Trt01An_03"
            },
            {
              "groupingId": "AnlsGrouping_04_Arace",
              "groupId": "AnlsGrouping_04_Arace_04"
            }
          ],
          "rawValue": "0",
          "formattedValue": "0"
        },
        {
          "operationId": "Mth_03_01_n",
          "resultGroups": [
            {
              "groupingId": "AnlsGrouping_01_Trt01An",
              "groupId": "AnlsGrouping_01_Trt01An_03"
            },
            {
              "groupingId": "AnlsGrouping_04_Arace",
              "groupId": "AnlsGrouping_04_Arace_04"
            }
          ],
          "rawValue": "0",
          "formattedValue": "0"
        },
        {
          "operationId": "Mth_03_01_n",
          "resultGroups": [
            {
              "groupingId": "AnlsGrouping_01_Trt01An",
              "groupId": "AnlsGrouping_01_Trt01An_03"
            },
            {
              "groupingId": "AnlsGrouping_04_Arace",
              "groupId": "AnlsGrouping_04_Arace_05"
            }
          ],
          "rawValue": "78",
          "formattedValue": "78"
        },
        {
          "operationId": "Mth_03_01_n",
          "resultGroups": [
            {
              "groupingId": "AnlsGrouping_01_Trt01An",
              "groupId": "AnlsGrouping_01_Trt01An_03"
            },
            {
              "groupingId": "AnlsGrouping_04_Arace",
              "groupId": "AnlsGrouping_04_Arace_06"
            }
          ],
          "rawValue": "0",
          "formattedValue": "0"
        },
        {
          "operationId": "Mth_03_02_%",
          "resultGroups": [
            {
              "groupingId": "AnlsGrouping_01_Trt01An",
              "groupId": "AnlsGrouping_01_Trt01An_01"
            },
            {
              "groupingId": "AnlsGrouping_04_Arace",
              "groupId": "AnlsGrouping_04_Arace_02"
            }
          ],
          "rawValue": "0",
          "formattedValue": "(0.0)"
        },
        {
          "operationId": "Mth_03_02_%",
          "resultGroups": [
            {
              "groupingId": "AnlsGrouping_01_Trt01An",
              "groupId": "AnlsGrouping_01_Trt01An_01"
            },
            {
              "groupingId": "AnlsGrouping_04_Arace",
              "groupId": "AnlsGrouping_04_Arace_03"
            }
          ],
          "rawValue": "7.1428571429",
          "formattedValue": "(7.1)"
        },
        {
          "operationId": "Mth_03_02_%",
          "resultGroups": [
            {
              "groupingId": "AnlsGrouping_01_Trt01An",
              "groupId": "AnlsGrouping_01_Trt01An_01"
            },
            {
              "groupingId": "AnlsGrouping_04_Arace",
              "groupId": "AnlsGrouping_04_Arace_03"
            }
          ],
          "rawValue": "0",
          "formattedValue": "(0.0)"
        },
        {
          "operationId": "Mth_03_02_%",
          "resultGroups": [
            {
              "groupingId": "AnlsGrouping_01_Trt01An",
              "groupId": "AnlsGrouping_01_Trt01An_01"
            },
            {
              "groupingId": "AnlsGrouping_04_Arace",
              "groupId": "AnlsGrouping_04_Arace_04"
            }
          ],
          "rawValue": "0",
          "formattedValue": "(0.0)"
        },
        {
          "operationId": "Mth_03_02_%",
          "resultGroups": [
            {
              "groupingId": "AnlsGrouping_01_Trt01An",
              "groupId": "AnlsGrouping_01_Trt01An_01"
            },
            {
              "groupingId": "AnlsGrouping_04_Arace",
              "groupId": "AnlsGrouping_04_Arace_04"
            }
          ],
          "rawValue": "0",
          "formattedValue": "(0.0)"
        },
        {
          "operationId": "Mth_03_02_%",
          "resultGroups": [
            {
              "groupingId": "AnlsGrouping_01_Trt01An",
              "groupId": "AnlsGrouping_01_Trt01An_01"
            },
            {
              "groupingId": "AnlsGrouping_04_Arace",
              "groupId": "AnlsGrouping_04_Arace_05"
            }
          ],
          "rawValue": "92.857142857",
          "formattedValue": "(92.9)"
        },
        {
          "operationId": "Mth_03_02_%",
          "resultGroups": [
            {
              "groupingId": "AnlsGrouping_01_Trt01An",
              "groupId": "AnlsGrouping_01_Trt01An_01"
            },
            {
              "groupingId": "AnlsGrouping_04_Arace",
              "groupId": "AnlsGrouping_04_Arace_06"
            }
          ],
          "rawValue": "0",
          "formattedValue": "(0.0)"
        },
        {
          "operationId": "Mth_03_02_%",
          "resultGroups": [
            {
              "groupingId": "AnlsGrouping_01_Trt01An",
              "groupId": "AnlsGrouping_01_Trt01An_02"
            },
            {
              "groupingId": "AnlsGrouping_04_Arace",
              "groupId": "AnlsGrouping_04_Arace_01"
            }
          ],
          "rawValue": "1.1904761905",
          "formattedValue": "(1.2)"
        },
        {
          "operationId": "Mth_03_02_%",
          "resultGroups": [
            {
              "groupingId": "AnlsGrouping_01_Trt01An",
              "groupId": "AnlsGrouping_01_Trt01An_02"
            },
            {
              "groupingId": "AnlsGrouping_04_Arace",
              "groupId": "AnlsGrouping_04_Arace_02"
            }
          ],
          "rawValue": "0",
          "formattedValue": "(0.0)"
        },
        {
          "operationId": "Mth_03_02_%",
          "resultGroups": [
            {
              "groupingId": "AnlsGrouping_01_Trt01An",
              "groupId": "AnlsGrouping_01_Trt01An_02"
            },
            {
              "groupingId": "AnlsGrouping_04_Arace",
              "groupId": "AnlsGrouping_04_Arace_03"
            }
          ],
          "rawValue": "10.714285714",
          "formattedValue": "(10.7)"
        },
        {
          "operationId": "Mth_03_02_%",
          "resultGroups": [
            {
              "groupingId": "AnlsGrouping_01_Trt01An",
              "groupId": "AnlsGrouping_01_Trt01An_02"
            },
            {
              "groupingId": "AnlsGrouping_04_Arace",
              "groupId": "AnlsGrouping_04_Arace_03"
            }
          ],
          "rawValue": "0",
          "formattedValue": "(0.0)"
        },
        {
          "operationId": "Mth_03_02_%",
          "resultGroups": [
            {
              "groupingId": "AnlsGrouping_01_Trt01An",
              "groupId": "AnlsGrouping_01_Trt01An_02"
            },
            {
              "groupingId": "AnlsGrouping_04_Arace",
              "groupId": "AnlsGrouping_04_Arace_04"
            }
          ],
          "rawValue": "0",
          "formattedValue": "(0.0)"
        },
        {
          "operationId": "Mth_03_02_%",
          "resultGroups": [
            {
              "groupingId": "AnlsGrouping_01_Trt01An",
              "groupId": "AnlsGrouping_01_Trt01An_02"
            },
            {
              "groupingId": "AnlsGrouping_04_Arace",
              "groupId": "AnlsGrouping_04_Arace_05"
            }
          ],
          "rawValue": "88.095238095",
          "formattedValue": "(88.1)"
        },
        {
          "operationId": "Mth_03_02_%",
          "resultGroups": [
            {
              "groupingId": "AnlsGrouping_01_Trt01An",
              "groupId": "AnlsGrouping_01_Trt01An_02"
            },
            {
              "groupingId": "AnlsGrouping_04_Arace",
              "groupId": "AnlsGrouping_04_Arace_06"
            }
          ],
          "rawValue": "0",
          "formattedValue": "(0.0)"
        },
        {
          "operationId": "Mth_03_02_%",
          "resultGroups": [
            {
              "groupingId": "AnlsGrouping_01_Trt01An",
              "groupId": "AnlsGrouping_01_Trt01An_03"
            },
            {
              "groupingId": "AnlsGrouping_04_Arace",
              "groupId": "AnlsGrouping_04_Arace_02"
            }
          ],
          "rawValue": "0",
          "formattedValue": "(0.0)"
        },
        {
          "operationId": "Mth_03_02_%",
          "resultGroups": [
            {
              "groupingId": "AnlsGrouping_01_Trt01An",
              "groupId": "AnlsGrouping_01_Trt01An_03"
            },
            {
              "groupingId": "AnlsGrouping_04_Arace",
              "groupId": "AnlsGrouping_04_Arace_03"
            }
          ],
          "rawValue": "9.3023255814",
          "formattedValue": "(9.3)"
        },
        {
          "operationId": "Mth_03_02_%",
          "resultGroups": [
            {
              "groupingId": "AnlsGrouping_01_Trt01An",
              "groupId": "AnlsGrouping_01_Trt01An_03"
            },
            {
              "groupingId": "AnlsGrouping_04_Arace",
              "groupId": "AnlsGrouping_04_Arace_03"
            }
          ],
          "rawValue": "0",
          "formattedValue": "(0.0)"
        },
        {
          "operationId": "Mth_03_02_%",
          "resultGroups": [
            {
              "groupingId": "AnlsGrouping_01_Trt01An",
              "groupId": "AnlsGrouping_01_Trt01An_03"
            },
            {
              "groupingId": "AnlsGrouping_04_Arace",
              "groupId": "AnlsGrouping_04_Arace_04"
            }
          ],
          "rawValue": "0",
          "formattedValue": "(0.0)"
        },
        {
          "operationId": "Mth_03_02_%",
          "resultGroups": [
            {
              "groupingId": "AnlsGrouping_01_Trt01An",
              "groupId": "AnlsGrouping_01_Trt01An_03"
            },
            {
              "groupingId": "AnlsGrouping_04_Arace",
              "groupId": "AnlsGrouping_04_Arace_04"
            }
          ],
          "rawValue": "0",
          "formattedValue": "(0.0)"
        },
        {
          "operationId": "Mth_03_02_%",
          "resultGroups": [
            {
              "groupingId": "AnlsGrouping_01_Trt01An",
              "groupId": "AnlsGrouping_01_Trt01An_03"
            },
            {
              "groupingId": "AnlsGrouping_04_Arace",
              "groupId": "AnlsGrouping_04_Arace_05"
            }
          ],
          "rawValue": "90.697674419",
          "formattedValue": "(90.7)"
        },
        {
          "operationId": "Mth_03_02_%",
          "resultGroups": [
            {
              "groupingId": "AnlsGrouping_01_Trt01An",
              "groupId": "AnlsGrouping_01_Trt01An_03"
            },
            {
              "groupingId": "AnlsGrouping_04_Arace",
              "groupId": "AnlsGrouping_04_Arace_06"
            }
          ],
          "rawValue": "0",
          "formattedValue": "(0.0)"
        }
      ]
    },
    {
      "name": "Summary of Subjects by Race, n (%)",
      "id": "An_05_Total",
      "reason": {
        "controlledTerm": "SPECIFIED IN SAP"
      },
      "purpose": {
        "sponsorTermId": "TermEx01_01"
      },
      "methodId": "Mth_03",
      "version": 1,
      "categoryIds": [
        "ANSET_01",
        "ANSET_01_ANINT_04"
      ],
      "dataset": "ADSL",
      "variable": "USUBJID",
      "analysisSetId": "AnalysisSet_01",
      "dataSubsetId": "Dss_28",
      "orderedGroupings": [
        {
          "order": 1,
          "groupingId": "AnlsGrouping_04_Arace",
          "resultsByGroup": true
        }
      ],
      "referencedAnalysisOperations": [
        {
          "referencedOperationRelationshipId": "Mth_03_pct_NUM",
          "analysisId": "An_05_Total"
        },
        {
          "referencedOperationRelationshipId": "Mth_03_pct_DEN",
          "analysisId": "An_01"
        }
      ],
      "results": [
        {
          "operationId": "Mth_03_01_n",
          "resultGroups": [
            {
              "groupingId": "AnlsGrouping_04_Arace",
              "groupId": "AnlsGrouping_04_Arace_01"
            }
          ],
          "rawValue": "1",
          "formattedValue": "1"
        },
        {
          "operationId": "Mth_03_01_n",
          "resultGroups": [
            {
              "groupingId": "AnlsGrouping_04_Arace",
              "groupId": "AnlsGrouping_04_Arace_02"
            }
          ],
          "rawValue": "0",
          "formattedValue": "0"
        },
        {
          "operationId": "Mth_03_01_n",
          "resultGroups": [
            {
              "groupingId": "AnlsGrouping_04_Arace",
              "groupId": "AnlsGrouping_04_Arace_03"
            }
          ],
          "rawValue": "23",
          "formattedValue": "23"
        },
        {
          "operationId": "Mth_03_01_n",
          "resultGroups": [
            {
              "groupingId": "AnlsGrouping_04_Arace",
              "groupId": "AnlsGrouping_04_Arace_04"
            }
          ],
          "rawValue": "0",
          "formattedValue": "0"
        },
        {
          "operationId": "Mth_03_01_n",
          "resultGroups": [
            {
              "groupingId": "AnlsGrouping_04_Arace",
              "groupId": "AnlsGrouping_04_Arace_05"
            }
          ],
          "rawValue": "230",
          "formattedValue": "230"
        },
        {
          "operationId": "Mth_03_01_n",
          "resultGroups": [
            {
              "groupingId": "AnlsGrouping_04_Arace",
              "groupId": "AnlsGrouping_04_Arace_06"
            }
          ],
          "rawValue": "0",
          "formattedValue": "0"
        },
        {
          "operationId": "Mth_03_01_n",
          "resultGroups": [
            {
              "groupingId": "AnlsGrouping_04_Arace",
              "groupId": "AnlsGrouping_04_Arace_07"
            }
          ],
          "rawValue": "0",
          "formattedValue": "0"
        },
        {
          "operationId": "Mth_03_01_n",
          "resultGroups": [
            {
              "groupingId": "AnlsGrouping_04_Arace",
              "groupId": "AnlsGrouping_04_Arace_08"
            }
          ],
          "rawValue": "0",
          "formattedValue": "0"
        },
        {
          "operationId": "Mth_03_02_%",
          "resultGroups": [
            {
              "groupingId": "AnlsGrouping_04_Arace",
              "groupId": "AnlsGrouping_04_Arace_01"
            }
          ],
          "rawValue": "0.3937007874",
          "formattedValue": "(0.4)"
        },
        {
          "operationId": "Mth_03_02_%",
          "resultGroups": [
            {
              "groupingId": "AnlsGrouping_04_Arace",
              "groupId": "AnlsGrouping_04_Arace_02"
            }
          ],
          "rawValue": "0",
          "formattedValue": "(0.0)"
        },
        {
          "operationId": "Mth_03_02_%",
          "resultGroups": [
            {
              "groupingId": "AnlsGrouping_04_Arace",
              "groupId": "AnlsGrouping_04_Arace_03"
            }
          ],
          "rawValue": "9.0551181102",
          "formattedValue": "(9.1)"
        },
        {
          "operationId": "Mth_03_02_%",
          "resultGroups": [
            {
              "groupingId": "AnlsGrouping_04_Arace",
              "groupId": "AnlsGrouping_04_Arace_04"
            }
          ],
          "rawValue": "0",
          "formattedValue": "(0.0)"
        },
        {
          "operationId": "Mth_03_02_%",
          "resultGroups": [
            {
              "groupingId": "AnlsGrouping_04_Arace",
              "groupId": "AnlsGrouping_04_Arace_05"
            }
          ],
          "rawValue": "90.551181102",
          "formattedValue": "(90.6)"
        },
        {
          "operationId": "Mth_03_02_%",
          "resultGroups": [
            {
              "groupingId": "AnlsGrouping_04_Arace",
              "groupId": "AnlsGrouping_04_Arace_06"
            }
          ],
          "rawValue": "0",
          "formattedValue": "(0.0)"
        },
        {
          "operationId": "Mth_03_02_%",
          "resultGroups": [
            {
              "groupingId": "AnlsGrouping_04_Arace",
              "groupId": "AnlsGrouping_04_Arace_07"
            }
          ],
          "rawValue": "0",
          "formattedValue": "(0.0)"
        },
        {
          "operationId": "Mth_03_02_%",
          "resultGroups": [
            {
              "groupingId": "AnlsGrouping_04_Arace",
              "groupId": "AnlsGrouping_04_Arace_08"
            }
          ],
          "rawValue": "0",
          "formattedValue": "(0.0)"
        }
      ]
    },
    {
      "name": "Summary of Subjects by Treatment and Ethnicity, n (%)",
      "id": "An_06",
      "reason": {
        "controlledTerm": "SPECIFIED IN SAP"
      },
      "purpose": {
        "sponsorTermId": "TermEx01_01"
      },
      "methodId": "Mth_03",
      "version": 1,
      "categoryIds": [
        "ANSET_01",
        "ANSET_01_ANINT_04"
      ],
      "dataset": "ADSL",
      "variable": "USUBJID",
      "analysisSetId": "AnalysisSet_01",
      "orderedGroupings": [
        {
          "order": 1,
          "groupingId": "AnlsGrouping_01_Trt01An",
          "resultsByGroup": true
        },
        {
          "order": 2,
          "groupingId": "AnlsGrouping_05_Aethnic",
          "resultsByGroup": true
        }
      ],
      "referencedAnalysisOperations": [
        {
          "referencedOperationRelationshipId": "Mth_03_pct_NUM",
          "analysisId": "An_06"
        },
        {
          "referencedOperationRelationshipId": "Mth_03_pct_DEN",
          "analysisId": "An_01"
        }
      ],
      "results": [
        {
          "operationId": "Mth_03_01_n",
          "resultGroups": [
            {
              "groupingId": "AnlsGrouping_01_Trt01An",
              "groupId": "AnlsGrouping_01_Trt01An_01"
            },
            {
              "groupingId": "AnlsGrouping_05_Aethnic",
              "groupId": "AnlsGrouping_05_Aethnic_01"
            }
          ],
          "rawValue": "6",
          "formattedValue": "6"
        },
        {
          "operationId": "Mth_03_01_n",
          "resultGroups": [
            {
              "groupingId": "AnlsGrouping_01_Trt01An",
              "groupId": "AnlsGrouping_01_Trt01An_01"
            },
            {
              "groupingId": "AnlsGrouping_05_Aethnic",
              "groupId": "AnlsGrouping_05_Aethnic_01"
            }
          ],
          "rawValue": "78",
          "formattedValue": "78"
        },
        {
          "operationId": "Mth_03_01_n",
          "resultGroups": [
            {
              "groupingId": "AnlsGrouping_01_Trt01An",
              "groupId": "AnlsGrouping_01_Trt01An_01"
            },
            {
              "groupingId": "AnlsGrouping_05_Aethnic",
              "groupId": "AnlsGrouping_05_Aethnic_03"
            }
          ],
          "rawValue": "0",
          "formattedValue": "0"
        },
        {
          "operationId": "Mth_03_01_n",
          "resultGroups": [
            {
              "groupingId": "AnlsGrouping_01_Trt01An",
              "groupId": "AnlsGrouping_01_Trt01An_01"
            },
            {
              "groupingId": "AnlsGrouping_05_Aethnic",
              "groupId": "AnlsGrouping_05_Aethnic_04"
            }
          ],
          "rawValue": "0",
          "formattedValue": "0"
        },
        {
          "operationId": "Mth_03_01_n",
          "resultGroups": [
            {
              "groupingId": "AnlsGrouping_01_Trt01An",
              "groupId": "AnlsGrouping_01_Trt01An_02"
            },
            {
              "groupingId": "AnlsGrouping_05_Aethnic",
              "groupId": "AnlsGrouping_05_Aethnic_01"
            }
          ],
          "rawValue": "3",
          "formattedValue": "3"
        },
        {
          "operationId": "Mth_03_01_n",
          "resultGroups": [
            {
              "groupingId": "AnlsGrouping_01_Trt01An",
              "groupId": "AnlsGrouping_01_Trt01An_02"
            },
            {
              "groupingId": "AnlsGrouping_05_Aethnic",
              "groupId": "AnlsGrouping_05_Aethnic_01"
            }
          ],
          "rawValue": "81",
          "formattedValue": "81"
        },
        {
          "operationId": "Mth_03_01_n",
          "resultGroups": [
            {
              "groupingId": "AnlsGrouping_01_Trt01An",
              "groupId": "AnlsGrouping_01_Trt01An_02"
            },
            {
              "groupingId": "AnlsGrouping_05_Aethnic",
              "groupId": "AnlsGrouping_05_Aethnic_03"
            }
          ],
          "rawValue": "0",
          "formattedValue": "0"
        },
        {
          "operationId": "Mth_03_01_n",
          "resultGroups": [
            {
              "groupingId": "AnlsGrouping_01_Trt01An",
              "groupId": "AnlsGrouping_01_Trt01An_02"
            },
            {
              "groupingId": "AnlsGrouping_05_Aethnic",
              "groupId": "AnlsGrouping_05_Aethnic_04"
            }
          ],
          "rawValue": "0",
          "formattedValue": "0"
        },
        {
          "operationId": "Mth_03_01_n",
          "resultGroups": [
            {
              "groupingId": "AnlsGrouping_01_Trt01An",
              "groupId": "AnlsGrouping_01_Trt01An_03"
            },
            {
              "groupingId": "AnlsGrouping_05_Aethnic",
              "groupId": "AnlsGrouping_05_Aethnic_01"
            }
          ],
          "rawValue": "3",
          "formattedValue": "3"
        },
        {
          "operationId": "Mth_03_01_n",
          "resultGroups": [
            {
              "groupingId": "AnlsGrouping_01_Trt01An",
              "groupId": "AnlsGrouping_01_Trt01An_03"
            },
            {
              "groupingId": "AnlsGrouping_05_Aethnic",
              "groupId": "AnlsGrouping_05_Aethnic_01"
            }
          ],
          "rawValue": "83",
          "formattedValue": "83"
        },
        {
          "operationId": "Mth_03_01_n",
          "resultGroups": [
            {
              "groupingId": "AnlsGrouping_01_Trt01An",
              "groupId": "AnlsGrouping_01_Trt01An_03"
            },
            {
              "groupingId": "AnlsGrouping_05_Aethnic",
              "groupId": "AnlsGrouping_05_Aethnic_03"
            }
          ],
          "rawValue": "0",
          "formattedValue": "0"
        },
        {
          "operationId": "Mth_03_01_n",
          "resultGroups": [
            {
              "groupingId": "AnlsGrouping_01_Trt01An",
              "groupId": "AnlsGrouping_01_Trt01An_03"
            },
            {
              "groupingId": "AnlsGrouping_05_Aethnic",
              "groupId": "AnlsGrouping_05_Aethnic_04"
            }
          ],
          "rawValue": "0",
          "formattedValue": "0"
        },
        {
          "operationId": "Mth_03_02_%",
          "resultGroups": [
            {
              "groupingId": "AnlsGrouping_01_Trt01An",
              "groupId": "AnlsGrouping_01_Trt01An_01"
            },
            {
              "groupingId": "AnlsGrouping_05_Aethnic",
              "groupId": "AnlsGrouping_05_Aethnic_01"
            }
          ],
          "rawValue": "7.1428571429",
          "formattedValue": "(7.1)"
        },
        {
          "operationId": "Mth_03_02_%",
          "resultGroups": [
            {
              "groupingId": "AnlsGrouping_01_Trt01An",
              "groupId": "AnlsGrouping_01_Trt01An_01"
            },
            {
              "groupingId": "AnlsGrouping_05_Aethnic",
              "groupId": "AnlsGrouping_05_Aethnic_01"
            }
          ],
          "rawValue": "92.857142857",
          "formattedValue": "(92.9)"
        },
        {
          "operationId": "Mth_03_02_%",
          "resultGroups": [
            {
              "groupingId": "AnlsGrouping_01_Trt01An",
              "groupId": "AnlsGrouping_01_Trt01An_01"
            },
            {
              "groupingId": "AnlsGrouping_05_Aethnic",
              "groupId": "AnlsGrouping_05_Aethnic_03"
            }
          ],
          "rawValue": "0",
          "formattedValue": "(0.0)"
        },
        {
          "operationId": "Mth_03_02_%",
          "resultGroups": [
            {
              "groupingId": "AnlsGrouping_01_Trt01An",
              "groupId": "AnlsGrouping_01_Trt01An_01"
            },
            {
              "groupingId": "AnlsGrouping_05_Aethnic",
              "groupId": "AnlsGrouping_05_Aethnic_04"
            }
          ],
          "rawValue": "0",
          "formattedValue": "(0.0)"
        },
        {
          "operationId": "Mth_03_02_%",
          "resultGroups": [
            {
              "groupingId": "AnlsGrouping_01_Trt01An",
              "groupId": "AnlsGrouping_01_Trt01An_02"
            },
            {
              "groupingId": "AnlsGrouping_05_Aethnic",
              "groupId": "AnlsGrouping_05_Aethnic_01"
            }
          ],
          "rawValue": "3.5714285714",
          "formattedValue": "(3.6)"
        },
        {
          "operationId": "Mth_03_02_%",
          "resultGroups": [
            {
              "groupingId": "AnlsGrouping_01_Trt01An",
              "groupId": "AnlsGrouping_01_Trt01An_02"
            },
            {
              "groupingId": "AnlsGrouping_05_Aethnic",
              "groupId": "AnlsGrouping_05_Aethnic_01"
            }
          ],
          "rawValue": "96.428571429",
          "formattedValue": "(96.4)"
        },
        {
          "operationId": "Mth_03_02_%",
          "resultGroups": [
            {
              "groupingId": "AnlsGrouping_01_Trt01An",
              "groupId": "AnlsGrouping_01_Trt01An_02"
            },
            {
              "groupingId": "AnlsGrouping_05_Aethnic",
              "groupId": "AnlsGrouping_05_Aethnic_03"
            }
          ],
          "rawValue": "0",
          "formattedValue": "(0.0)"
        },
        {
          "operationId": "Mth_03_02_%",
          "resultGroups": [
            {
              "groupingId": "AnlsGrouping_01_Trt01An",
              "groupId": "AnlsGrouping_01_Trt01An_02"
            },
            {
              "groupingId": "AnlsGrouping_05_Aethnic",
              "groupId": "AnlsGrouping_05_Aethnic_04"
            }
          ],
          "rawValue": "0",
          "formattedValue": "(0.0)"
        },
        {
          "operationId": "Mth_03_02_%",
          "resultGroups": [
            {
              "groupingId": "AnlsGrouping_01_Trt01An",
              "groupId": "AnlsGrouping_01_Trt01An_03"
            },
            {
              "groupingId": "AnlsGrouping_05_Aethnic",
              "groupId": "AnlsGrouping_05_Aethnic_01"
            }
          ],
          "rawValue": "3.488372093",
          "formattedValue": "(3.5)"
        },
        {
          "operationId": "Mth_03_02_%",
          "resultGroups": [
            {
              "groupingId": "AnlsGrouping_01_Trt01An",
              "groupId": "AnlsGrouping_01_Trt01An_03"
            },
            {
              "groupingId": "AnlsGrouping_05_Aethnic",
              "groupId": "AnlsGrouping_05_Aethnic_01"
            }
          ],
          "rawValue": "96.511627907",
          "formattedValue": "(96.5)"
        },
        {
          "operationId": "Mth_03_02_%",
          "resultGroups": [
            {
              "groupingId": "AnlsGrouping_01_Trt01An",
              "groupId": "AnlsGrouping_01_Trt01An_03"
            },
            {
              "groupingId": "AnlsGrouping_05_Aethnic",
              "groupId": "AnlsGrouping_05_Aethnic_03"
            }
          ],
          "rawValue": "0",
          "formattedValue": "(0.0)"
        },
        {
          "operationId": "Mth_03_02_%",
          "resultGroups": [
            {
              "groupingId": "AnlsGrouping_01_Trt01An",
              "groupId": "AnlsGrouping_01_Trt01An_03"
            },
            {
              "groupingId": "AnlsGrouping_05_Aethnic",
              "groupId": "AnlsGrouping_05_Aethnic_04"
            }
          ],
          "rawValue": "0",
          "formattedValue": "(0.0)"
        }
      ]
    },
    {
      "name": "Summary of Subjects by Ethnicity, n (%)",
      "id": "An_06_Total",
      "reason": {
        "controlledTerm": "SPECIFIED IN SAP"
      },
      "purpose": {
        "sponsorTermId": "TermEx01_01"
      },
      "methodId": "Mth_03",
      "version": 1,
      "categoryIds": [
        "ANSET_01",
        "ANSET_01_ANINT_04"
      ],
      "dataset": "ADSL",
      "variable": "USUBJID",
      "analysisSetId": "AnalysisSet_01",
      "dataSubsetId": "Dss_28",
      "orderedGroupings": [
        {
          "order": 1,
          "groupingId": "AnlsGrouping_05_Aethnic",
          "resultsByGroup": true
        }
      ],
      "referencedAnalysisOperations": [
        {
          "referencedOperationRelationshipId": "Mth_03_pct_NUM",
          "analysisId": "An_06_Total"
        },
        {
          "referencedOperationRelationshipId": "Mth_03_pct_DEN",
          "analysisId": "An_01"
        }
      ],
      "results": [
        {
          "operationId": "Mth_03_01_n",
          "resultGroups": [
            {
              "groupingId": "AnlsGrouping_05_Aethnic",
              "groupId": "AnlsGrouping_05_Aethnic_01"
            }
          ],
          "rawValue": "12",
          "formattedValue": "12"
        },
        {
          "operationId": "Mth_03_01_n",
          "resultGroups": [
            {
              "groupingId": "AnlsGrouping_05_Aethnic",
              "groupId": "AnlsGrouping_05_Aethnic_01"
            }
          ],
          "rawValue": "242",
          "formattedValue": "242"
        },
        {
          "operationId": "Mth_03_01_n",
          "resultGroups": [
            {
              "groupingId": "AnlsGrouping_05_Aethnic",
              "groupId": "AnlsGrouping_05_Aethnic_03"
            }
          ],
          "rawValue": "0",
          "formattedValue": "0"
        },
        {
          "operationId": "Mth_03_01_n",
          "resultGroups": [
            {
              "groupingId": "AnlsGrouping_05_Aethnic",
              "groupId": "AnlsGrouping_05_Aethnic_04"
            }
          ],
          "rawValue": "0",
          "formattedValue": "0"
        },
        {
          "operationId": "Mth_03_02_%",
          "resultGroups": [
            {
              "groupingId": "AnlsGrouping_05_Aethnic",
              "groupId": "AnlsGrouping_05_Aethnic_01"
            }
          ],
          "rawValue": "4.7244094488",
          "formattedValue": "(4.7)"
        },
        {
          "operationId": "Mth_03_02_%",
          "resultGroups": [
            {
              "groupingId": "AnlsGrouping_05_Aethnic",
              "groupId": "AnlsGrouping_05_Aethnic_01"
            }
          ],
          "rawValue": "95.275590551",
          "formattedValue": "(95.3)"
        },
        {
          "operationId": "Mth_03_02_%",
          "resultGroups": [
            {
              "groupingId": "AnlsGrouping_05_Aethnic",
              "groupId": "AnlsGrouping_05_Aethnic_03"
            }
          ],
          "rawValue": "0",
          "formattedValue": "(0.0)"
        },
        {
          "operationId": "Mth_03_02_%",
          "resultGroups": [
            {
              "groupingId": "AnlsGrouping_05_Aethnic",
              "groupId": "AnlsGrouping_05_Aethnic_04"
            }
          ],
          "rawValue": "0",
          "formattedValue": "(0.0)"
        }
      ]
    },
    {
      "name": "Summary of Subjects by Treatment and Country of participation, n (%)",
      "id": "An_07",
      "reason": {
        "controlledTerm": "SPECIFIED IN SAP"
      },
      "purpose": {
        "sponsorTermId": "TermEx01_01"
      },
      "methodId": "Mth_03",
      "version": 1,
      "categoryIds": [
        "ANSET_01",
        "ANSET_01_ANINT_04"
      ],
      "dataset": "ADSL",
      "variable": "USUBJID",
      "analysisSetId": "AnalysisSet_01",
      "orderedGroupings": [
        {
          "order": 1,
          "groupingId": "AnlsGrouping_01_Trt01An",
          "resultsByGroup": true
        },
        {
          "order": 2,
          "groupingId": "AnlsGrouping_06_Acountry",
          "resultsByGroup": true
        }
      ],
      "referencedAnalysisOperations": [
        {
          "referencedOperationRelationshipId": "Mth_03_pct_NUM",
          "analysisId": "An_07"
        },
        {
          "referencedOperationRelationshipId": "Mth_03_pct_DEN",
          "analysisId": "An_01"
        }
      ],
      "results": [
        {
          "operationId": "Mth_03_01_n",
          "resultGroups": [
            {
              "groupingId": "AnlsGrouping_01_Trt01An",
              "groupId": "AnlsGrouping_01_Trt01An_01"
            },
            {
              "groupingId": "AnlsGrouping_06_Acountry"
            }
          ],
          "rawValue": "84",
          "formattedValue": "84"
        },
        {
          "operationId": "Mth_03_01_n",
          "resultGroups": [
            {
              "groupingId": "AnlsGrouping_01_Trt01An",
              "groupId": "AnlsGrouping_01_Trt01An_02"
            },
            {
              "groupingId": "AnlsGrouping_06_Acountry"
            }
          ],
          "rawValue": "84",
          "formattedValue": "84"
        },
        {
          "operationId": "Mth_03_01_n",
          "resultGroups": [
            {
              "groupingId": "AnlsGrouping_01_Trt01An",
              "groupId": "AnlsGrouping_01_Trt01An_03"
            },
            {
              "groupingId": "AnlsGrouping_06_Acountry"
            }
          ],
          "rawValue": "86",
          "formattedValue": "86"
        },
        {
          "operationId": "Mth_03_02_%",
          "resultGroups": [
            {
              "groupingId": "AnlsGrouping_01_Trt01An",
              "groupId": "AnlsGrouping_01_Trt01An_01"
            },
            {
              "groupingId": "AnlsGrouping_06_Acountry"
            }
          ],
          "rawValue": "100",
          "formattedValue": "(100.0)"
        },
        {
          "operationId": "Mth_03_02_%",
          "resultGroups": [
            {
              "groupingId": "AnlsGrouping_01_Trt01An",
              "groupId": "AnlsGrouping_01_Trt01An_02"
            },
            {
              "groupingId": "AnlsGrouping_06_Acountry"
            }
          ],
          "rawValue": "100",
          "formattedValue": "(100.0)"
        },
        {
          "operationId": "Mth_03_02_%",
          "resultGroups": [
            {
              "groupingId": "AnlsGrouping_01_Trt01An",
              "groupId": "AnlsGrouping_01_Trt01An_03"
            },
            {
              "groupingId": "AnlsGrouping_06_Acountry"
            }
          ],
          "rawValue": "100",
          "formattedValue": "(100.0)"
        }
      ]
    },
    {
      "name": "Summary of Subjects by Country of participation, n (%)",
      "id": "An_07_Total",
      "reason": {
        "controlledTerm": "SPECIFIED IN SAP"
      },
      "purpose": {
        "sponsorTermId": "TermEx01_01"
      },
      "methodId": "Mth_03",
      "version": 1,
      "categoryIds": [
        "ANSET_01",
        "ANSET_01_ANINT_04"
      ],
      "dataset": "ADSL",
      "variable": "USUBJID",
      "analysisSetId": "AnalysisSet_01",
      "dataSubsetId": "Dss_28",
      "orderedGroupings": [
        {
          "order": 1,
          "groupingId": "AnlsGrouping_06_Acountry",
          "resultsByGroup": true
        }
      ],
      "referencedAnalysisOperations": [
        {
          "referencedOperationRelationshipId": "Mth_03_pct_NUM",
          "analysisId": "An_07_Total"
        },
        {
          "referencedOperationRelationshipId": "Mth_03_pct_DEN",
          "analysisId": "An_01"
        }
      ],
      "results": [
        {
          "operationId": "Mth_03_01_n",
          "resultGroups": [
            {
              "groupingId": "AnlsGrouping_06_Acountry",
              "groupValue": "United States"
            }
          ],
          "rawValue": "254",
          "formattedValue": "254"
        },
        {
          "operationId": "Mth_03_02_%",
          "resultGroups": [
            {
              "groupingId": "AnlsGrouping_06_Acountry",
              "groupValue": "United States"
            }
          ],
          "rawValue": "100",
          "formattedValue": "(100.0)"
        }
      ]
    },
    {
      "name": "Summary of Baseline Weight (kg) by Treatment",
      "id": "An_08",
      "reason": {
        "controlledTerm": "SPECIFIED IN SAP"
      },
      "purpose": {
        "sponsorTermId": "TermEx01_01"
      },
      "methodId": "Mth_06",
      "version": 1,
      "categoryIds": [
        "ANSET_01",
        "ANSET_01_ANINT_04"
      ],
      "dataset": "ADSL",
      "variable": "WEIGHTBL",
      "analysisSetId": "AnalysisSet_01",
      "orderedGroupings": [
        {
          "order": 1,
          "groupingId": "AnlsGrouping_01_Trt01An",
          "resultsByGroup": true
        }
      ],
      "results": [
        {
          "operationId": "Mth_06_01_n",
          "resultGroups": [
            {
              "groupingId": "AnlsGrouping_01_Trt01An",
              "groupId": "AnlsGrouping_01_Trt01An_01"
            }
          ],
          "rawValue": "83",
          "formattedValue": "83"
        },
        {
          "operationId": "Mth_06_01_n",
          "resultGroups": [
            {
              "groupingId": "AnlsGrouping_01_Trt01An",
              "groupId": "AnlsGrouping_01_Trt01An_02"
            }
          ],
          "rawValue": "84",
          "formattedValue": "84"
        },
        {
          "operationId": "Mth_06_01_n",
          "resultGroups": [
            {
              "groupingId": "AnlsGrouping_01_Trt01An",
              "groupId": "AnlsGrouping_01_Trt01An_03"
            }
          ],
          "rawValue": "86",
          "formattedValue": "86"
        },
        {
          "operationId": "Mth_06_02_Mean",
          "resultGroups": [
            {
              "groupingId": "AnlsGrouping_01_Trt01An",
              "groupId": "AnlsGrouping_01_Trt01An_01"
            }
          ],
          "rawValue": "67.279518072",
          "formattedValue": "67.3"
        },
        {
          "operationId": "Mth_06_02_Mean",
          "resultGroups": [
            {
              "groupingId": "AnlsGrouping_01_Trt01An",
              "groupId": "AnlsGrouping_01_Trt01An_02"
            }
          ],
          "rawValue": "70.004761905",
          "formattedValue": "70.0"
        },
        {
          "operationId": "Mth_06_02_Mean",
          "resultGroups": [
            {
              "groupingId": "AnlsGrouping_01_Trt01An",
              "groupId": "AnlsGrouping_01_Trt01An_03"
            }
          ],
          "rawValue": "62.759302326",
          "formattedValue": "62.8"
        },
        {
          "operationId": "Mth_06_03_SD",
          "resultGroups": [
            {
              "groupingId": "AnlsGrouping_01_Trt01An",
              "groupId": "AnlsGrouping_01_Trt01An_01"
            }
          ],
          "rawValue": "14.123598649",
          "formattedValue": "(14.1)"
        },
        {
          "operationId": "Mth_06_03_SD",
          "resultGroups": [
            {
              "groupingId": "AnlsGrouping_01_Trt01An",
              "groupId": "AnlsGrouping_01_Trt01An_02"
            }
          ],
          "rawValue": "14.653433372",
          "formattedValue": "(14.7)"
        },
        {
          "operationId": "Mth_06_03_SD",
          "resultGroups": [
            {
              "groupingId": "AnlsGrouping_01_Trt01An",
              "groupId": "AnlsGrouping_01_Trt01An_03"
            }
          ],
          "rawValue": "12.771543533",
          "formattedValue": "(12.8)"
        },
        {
          "operationId": "Mth_06_04_Median",
          "resultGroups": [
            {
              "groupingId": "AnlsGrouping_01_Trt01An",
              "groupId": "AnlsGrouping_01_Trt01An_01"
            }
          ],
          "rawValue": "64.9",
          "formattedValue": "64.9"
        },
        {
          "operationId": "Mth_06_04_Median",
          "resultGroups": [
            {
              "groupingId": "AnlsGrouping_01_Trt01An",
              "groupId": "AnlsGrouping_01_Trt01An_02"
            }
          ],
          "rawValue": "69.2",
          "formattedValue": "69.2"
        },
        {
          "operationId": "Mth_06_04_Median",
          "resultGroups": [
            {
              "groupingId": "AnlsGrouping_01_Trt01An",
              "groupId": "AnlsGrouping_01_Trt01An_03"
            }
          ],
          "rawValue": "60.55",
          "formattedValue": "60.6"
        },
        {
          "operationId": "Mth_06_07_Min",
          "resultGroups": [
            {
              "groupingId": "AnlsGrouping_01_Trt01An",
              "groupId": "AnlsGrouping_01_Trt01An_01"
            }
          ],
          "rawValue": "45.4",
          "formattedValue": "45"
        },
        {
          "operationId": "Mth_06_07_Min",
          "resultGroups": [
            {
              "groupingId": "AnlsGrouping_01_Trt01An",
              "groupId": "AnlsGrouping_01_Trt01An_02"
            }
          ],
          "rawValue": "41.7",
          "formattedValue": "42"
        },
        {
          "operationId": "Mth_06_07_Min",
          "resultGroups": [
            {
              "groupingId": "AnlsGrouping_01_Trt01An",
              "groupId": "AnlsGrouping_01_Trt01An_03"
            }
          ],
          "rawValue": "34",
          "formattedValue": "34"
        },
        {
          "operationId": "Mth_06_08_Max",
          "resultGroups": [
            {
              "groupingId": "AnlsGrouping_01_Trt01An",
              "groupId": "AnlsGrouping_01_Trt01An_01"
            }
          ],
          "rawValue": "106.1",
          "formattedValue": "106"
        },
        {
          "operationId": "Mth_06_08_Max",
          "resultGroups": [
            {
              "groupingId": "AnlsGrouping_01_Trt01An",
              "groupId": "AnlsGrouping_01_Trt01An_02"
            }
          ],
          "rawValue": "108",
          "formattedValue": "108"
        },
        {
          "operationId": "Mth_06_08_Max",
          "resultGroups": [
            {
              "groupingId": "AnlsGrouping_01_Trt01An",
              "groupId": "AnlsGrouping_01_Trt01An_03"
            }
          ],
          "rawValue": "86.2",
          "formattedValue": "86"
        }
      ]
    },
    {
      "name": "Summary of Baseline Weight (kg)",
      "id": "An_08_Total",
      "reason": {
        "controlledTerm": "SPECIFIED IN SAP"
      },
      "purpose": {
        "sponsorTermId": "TermEx01_01"
      },
      "methodId": "Mth_06",
      "version": 1,
      "categoryIds": [
        "ANSET_01",
        "ANSET_01_ANINT_04"
      ],
      "dataset": "ADSL",
      "variable": "WEIGHTBL",
      "analysisSetId": "AnalysisSet_01",
      "dataSubsetId": "Dss_28",
      "results": [
        {
          "operationId": "Mth_06_01_n",
          "rawValue": "253",
          "formattedValue": "253"
        },
        {
          "operationId": "Mth_06_02_Mean",
          "rawValue": "66.647826087",
          "formattedValue": "66.6"
        },
        {
          "operationId": "Mth_06_03_SD",
          "rawValue": "14.131425537",
          "formattedValue": "(14.1)"
        },
        {
          "operationId": "Mth_06_04_Median",
          "rawValue": "66.7",
          "formattedValue": "66.7"
        },
        {
          "operationId": "Mth_06_07_Min",
          "rawValue": "34",
          "formattedValue": "34"
        },
        {
          "operationId": "Mth_06_08_Max",
          "rawValue": "108",
          "formattedValue": "108"
        }
      ]
    },
    {
      "name": "Summary of Baseline Height (cm) by Treatment",
      "id": "An_09",
      "reason": {
        "controlledTerm": "SPECIFIED IN SAP"
      },
      "purpose": {
        "sponsorTermId": "TermEx01_01"
      },
      "methodId": "Mth_06",
      "version": 1,
      "categoryIds": [
        "ANSET_01",
        "ANSET_01_ANINT_04"
      ],
      "dataset": "ADSL",
      "variable": "HEIGHTBL",
      "analysisSetId": "AnalysisSet_01",
      "orderedGroupings": [
        {
          "order": 1,
          "groupingId": "AnlsGrouping_01_Trt01An",
          "resultsByGroup": true
        }
      ],
      "results": [
        {
          "operationId": "Mth_06_01_n",
          "resultGroups": [
            {
              "groupingId": "AnlsGrouping_01_Trt01An",
              "groupId": "AnlsGrouping_01_Trt01An_01"
            }
          ],
          "rawValue": "84",
          "formattedValue": "84"
        },
        {
          "operationId": "Mth_06_01_n",
          "resultGroups": [
            {
              "groupingId": "AnlsGrouping_01_Trt01An",
              "groupId": "AnlsGrouping_01_Trt01An_02"
            }
          ],
          "rawValue": "84",
          "formattedValue": "84"
        },
        {
          "operationId": "Mth_06_01_n",
          "resultGroups": [
            {
              "groupingId": "AnlsGrouping_01_Trt01An",
              "groupId": "AnlsGrouping_01_Trt01An_03"
            }
          ],
          "rawValue": "86",
          "formattedValue": "86"
        },
        {
          "operationId": "Mth_06_02_Mean",
          "resultGroups": [
            {
              "groupingId": "AnlsGrouping_01_Trt01An",
              "groupId": "AnlsGrouping_01_Trt01An_01"
            }
          ],
          "rawValue": "163.43333333",
          "formattedValue": "163"
        },
        {
          "operationId": "Mth_06_02_Mean",
          "resultGroups": [
            {
              "groupingId": "AnlsGrouping_01_Trt01An",
              "groupId": "AnlsGrouping_01_Trt01An_02"
            }
          ],
          "rawValue": "165.8202381",
          "formattedValue": "166"
        },
        {
          "operationId": "Mth_06_02_Mean",
          "resultGroups": [
            {
              "groupingId": "AnlsGrouping_01_Trt01An",
              "groupId": "AnlsGrouping_01_Trt01An_03"
            }
          ],
          "rawValue": "162.57325581",
          "formattedValue": "163"
        },
        {
          "operationId": "Mth_06_03_SD",
          "resultGroups": [
            {
              "groupingId": "AnlsGrouping_01_Trt01An",
              "groupId": "AnlsGrouping_01_Trt01An_01"
            }
          ],
          "rawValue": "10.419240003",
          "formattedValue": "(10.4)"
        },
        {
          "operationId": "Mth_06_03_SD",
          "resultGroups": [
            {
              "groupingId": "AnlsGrouping_01_Trt01An",
              "groupId": "AnlsGrouping_01_Trt01An_02"
            }
          ],
          "rawValue": "10.131351552",
          "formattedValue": "(10.1)"
        },
        {
          "operationId": "Mth_06_03_SD",
          "resultGroups": [
            {
              "groupingId": "AnlsGrouping_01_Trt01An",
              "groupId": "AnlsGrouping_01_Trt01An_03"
            }
          ],
          "rawValue": "11.522361119",
          "formattedValue": "(11.5)"
        },
        {
          "operationId": "Mth_06_04_Median",
          "resultGroups": [
            {
              "groupingId": "AnlsGrouping_01_Trt01An",
              "groupId": "AnlsGrouping_01_Trt01An_01"
            }
          ],
          "rawValue": "162.6",
          "formattedValue": "163"
        },
        {
          "operationId": "Mth_06_04_Median",
          "resultGroups": [
            {
              "groupingId": "AnlsGrouping_01_Trt01An",
              "groupId": "AnlsGrouping_01_Trt01An_02"
            }
          ],
          "rawValue": "165.1",
          "formattedValue": "165"
        },
        {
          "operationId": "Mth_06_04_Median",
          "resultGroups": [
            {
              "groupingId": "AnlsGrouping_01_Trt01An",
              "groupId": "AnlsGrouping_01_Trt01An_03"
            }
          ],
          "rawValue": "162.6",
          "formattedValue": "163"
        },
        {
          "operationId": "Mth_06_07_Min",
          "resultGroups": [
            {
              "groupingId": "AnlsGrouping_01_Trt01An",
              "groupId": "AnlsGrouping_01_Trt01An_01"
            }
          ],
          "rawValue": "135.9",
          "formattedValue": "136"
        },
        {
          "operationId": "Mth_06_07_Min",
          "resultGroups": [
            {
              "groupingId": "AnlsGrouping_01_Trt01An",
              "groupId": "AnlsGrouping_01_Trt01An_02"
            }
          ],
          "rawValue": "146.1",
          "formattedValue": "146"
        },
        {
          "operationId": "Mth_06_07_Min",
          "resultGroups": [
            {
              "groupingId": "AnlsGrouping_01_Trt01An",
              "groupId": "AnlsGrouping_01_Trt01An_03"
            }
          ],
          "rawValue": "137.2",
          "formattedValue": "137"
        },
        {
          "operationId": "Mth_06_08_Max",
          "resultGroups": [
            {
              "groupingId": "AnlsGrouping_01_Trt01An",
              "groupId": "AnlsGrouping_01_Trt01An_01"
            }
          ],
          "rawValue": "195.6",
          "formattedValue": "196"
        },
        {
          "operationId": "Mth_06_08_Max",
          "resultGroups": [
            {
              "groupingId": "AnlsGrouping_01_Trt01An",
              "groupId": "AnlsGrouping_01_Trt01An_02"
            }
          ],
          "rawValue": "190.5",
          "formattedValue": "191"
        },
        {
          "operationId": "Mth_06_08_Max",
          "resultGroups": [
            {
              "groupingId": "AnlsGrouping_01_Trt01An",
              "groupId": "AnlsGrouping_01_Trt01An_03"
            }
          ],
          "rawValue": "185.4",
          "formattedValue": "185"
        }
      ]
    },
    {
      "name": "Summary of Baseline Height (cm)",
      "id": "An_09_Total",
      "reason": {
        "controlledTerm": "SPECIFIED IN SAP"
      },
      "purpose": {
        "sponsorTermId": "TermEx01_01"
      },
      "methodId": "Mth_06",
      "version": 1,
      "categoryIds": [
        "ANSET_01",
        "ANSET_01_ANINT_04"
      ],
      "dataset": "ADSL",
      "variable": "HEIGHTBL",
      "analysisSetId": "AnalysisSet_01",
      "dataSubsetId": "Dss_28",
      "results": [
        {
          "operationId": "Mth_06_01_n",
          "rawValue": "254",
          "formattedValue": "254"
        },
        {
          "operationId": "Mth_06_02_Mean",
          "rawValue": "163.93149606",
          "formattedValue": "164"
        },
        {
          "operationId": "Mth_06_03_SD",
          "rawValue": "10.760447269",
          "formattedValue": "(10.8)"
        },
        {
          "operationId": "Mth_06_04_Median",
          "rawValue": "162.85",
          "formattedValue": "163"
        },
        {
          "operationId": "Mth_06_07_Min",
          "rawValue": "135.9",
          "formattedValue": "136"
        },
        {
          "operationId": "Mth_06_08_Max",
          "rawValue": "195.6",
          "formattedValue": "196"
        }
      ]
    },
    {
      "name": "Summary of Baseline BMI (kg/m^2) by Treatment",
      "id": "An_10",
      "reason": {
        "controlledTerm": "SPECIFIED IN SAP"
      },
      "purpose": {
        "sponsorTermId": "TermEx01_01"
      },
      "methodId": "Mth_06",
      "version": 1,
      "categoryIds": [
        "ANSET_01",
        "ANSET_01_ANINT_04"
      ],
      "dataset": "ADSL",
      "variable": "BMIBL",
      "analysisSetId": "AnalysisSet_01",
      "orderedGroupings": [
        {
          "order": 1,
          "groupingId": "AnlsGrouping_01_Trt01An",
          "resultsByGroup": true
        }
      ],
      "results": [
        {
          "operationId": "Mth_06_01_n",
          "resultGroups": [
            {
              "groupingId": "AnlsGrouping_01_Trt01An",
              "groupId": "AnlsGrouping_01_Trt01An_01"
            }
          ],
          "rawValue": "83",
          "formattedValue": "83"
        },
        {
          "operationId": "Mth_06_01_n",
          "resultGroups": [
            {
              "groupingId": "AnlsGrouping_01_Trt01An",
              "groupId": "AnlsGrouping_01_Trt01An_02"
            }
          ],
          "rawValue": "84",
          "formattedValue": "84"
        },
        {
          "operationId": "Mth_06_01_n",
          "resultGroups": [
            {
              "groupingId": "AnlsGrouping_01_Trt01An",
              "groupId": "AnlsGrouping_01_Trt01An_03"
            }
          ],
          "rawValue": "86",
          "formattedValue": "86"
        },
        {
          "operationId": "Mth_06_02_Mean",
          "resultGroups": [
            {
              "groupingId": "AnlsGrouping_01_Trt01An",
              "groupId": "AnlsGrouping_01_Trt01An_01"
            }
          ],
          "rawValue": "25.062650602",
          "formattedValue": "25.1"
        },
        {
          "operationId": "Mth_06_02_Mean",
          "resultGroups": [
            {
              "groupingId": "AnlsGrouping_01_Trt01An",
              "groupId": "AnlsGrouping_01_Trt01An_02"
            }
          ],
          "rawValue": "25.347619048",
          "formattedValue": "25.3"
        },
        {
          "operationId": "Mth_06_02_Mean",
          "resultGroups": [
            {
              "groupingId": "AnlsGrouping_01_Trt01An",
              "groupId": "AnlsGrouping_01_Trt01An_03"
            }
          ],
          "rawValue": "23.636046512",
          "formattedValue": "23.6"
        },
        {
          "operationId": "Mth_06_03_SD",
          "resultGroups": [
            {
              "groupingId": "AnlsGrouping_01_Trt01An",
              "groupId": "AnlsGrouping_01_Trt01An_01"
            }
          ],
          "rawValue": "4.270508933",
          "formattedValue": "(4.27)"
        },
        {
          "operationId": "Mth_06_03_SD",
          "resultGroups": [
            {
              "groupingId": "AnlsGrouping_01_Trt01An",
              "groupId": "AnlsGrouping_01_Trt01An_02"
            }
          ],
          "rawValue": "4.1582687602",
          "formattedValue": "(4.16)"
        },
        {
          "operationId": "Mth_06_03_SD",
          "resultGroups": [
            {
              "groupingId": "AnlsGrouping_01_Trt01An",
              "groupId": "AnlsGrouping_01_Trt01An_03"
            }
          ],
          "rawValue": "3.6719256942",
          "formattedValue": "(3.67)"
        },
        {
          "operationId": "Mth_06_04_Median",
          "resultGroups": [
            {
              "groupingId": "AnlsGrouping_01_Trt01An",
              "groupId": "AnlsGrouping_01_Trt01An_01"
            }
          ],
          "rawValue": "24.3",
          "formattedValue": "24.3"
        },
        {
          "operationId": "Mth_06_04_Median",
          "resultGroups": [
            {
              "groupingId": "AnlsGrouping_01_Trt01An",
              "groupId": "AnlsGrouping_01_Trt01An_02"
            }
          ],
          "rawValue": "24.8",
          "formattedValue": "24.8"
        },
        {
          "operationId": "Mth_06_04_Median",
          "resultGroups": [
            {
              "groupingId": "AnlsGrouping_01_Trt01An",
              "groupId": "AnlsGrouping_01_Trt01An_03"
            }
          ],
          "rawValue": "23.4",
          "formattedValue": "23.4"
        },
        {
          "operationId": "Mth_06_07_Min",
          "resultGroups": [
            {
              "groupingId": "AnlsGrouping_01_Trt01An",
              "groupId": "AnlsGrouping_01_Trt01An_01"
            }
          ],
          "rawValue": "17.7",
          "formattedValue": "18"
        },
        {
          "operationId": "Mth_06_07_Min",
          "resultGroups": [
            {
              "groupingId": "AnlsGrouping_01_Trt01An",
              "groupId": "AnlsGrouping_01_Trt01An_02"
            }
          ],
          "rawValue": "13.7",
          "formattedValue": "14"
        },
        {
          "operationId": "Mth_06_07_Min",
          "resultGroups": [
            {
              "groupingId": "AnlsGrouping_01_Trt01An",
              "groupId": "AnlsGrouping_01_Trt01An_03"
            }
          ],
          "rawValue": "15.1",
          "formattedValue": "15"
        },
        {
          "operationId": "Mth_06_08_Max",
          "resultGroups": [
            {
              "groupingId": "AnlsGrouping_01_Trt01An",
              "groupId": "AnlsGrouping_01_Trt01An_01"
            }
          ],
          "rawValue": "40.1",
          "formattedValue": "40"
        },
        {
          "operationId": "Mth_06_08_Max",
          "resultGroups": [
            {
              "groupingId": "AnlsGrouping_01_Trt01An",
              "groupId": "AnlsGrouping_01_Trt01An_02"
            }
          ],
          "rawValue": "34.5",
          "formattedValue": "35"
        },
        {
          "operationId": "Mth_06_08_Max",
          "resultGroups": [
            {
              "groupingId": "AnlsGrouping_01_Trt01An",
              "groupId": "AnlsGrouping_01_Trt01An_03"
            }
          ],
          "rawValue": "33.3",
          "formattedValue": "33"
        }
      ]
    },
    {
      "name": "Summary of Baseline BMI (kg/m^2)",
      "id": "An_10_Total",
      "reason": {
        "controlledTerm": "SPECIFIED IN SAP"
      },
      "purpose": {
        "sponsorTermId": "TermEx01_01"
      },
      "methodId": "Mth_06",
      "version": 1,
      "categoryIds": [
        "ANSET_01",
        "ANSET_01_ANINT_04"
      ],
      "dataset": "ADSL",
      "variable": "BMIBL",
      "analysisSetId": "AnalysisSet_01",
      "dataSubsetId": "Dss_28",
      "results": [
        {
          "operationId": "Mth_06_01_n",
          "rawValue": "253",
          "formattedValue": "253"
        },
        {
          "operationId": "Mth_06_02_Mean",
          "rawValue": "24.672332016",
          "formattedValue": "24.7"
        },
        {
          "operationId": "Mth_06_03_SD",
          "rawValue": "4.092184927",
          "formattedValue": "(4.09)"
        },
        {
          "operationId": "Mth_06_04_Median",
          "rawValue": "24.2",
          "formattedValue": "24.2"
        },
        {
          "operationId": "Mth_06_07_Min",
          "rawValue": "13.7",
          "formattedValue": "14"
        },
        {
          "operationId": "Mth_06_08_Max",
          "rawValue": "40.1",
          "formattedValue": "40"
        }
      ]
    },
    {
      "name": "Summary of Duration of Disease (Months) by Treatment",
      "id": "An_11",
      "reason": {
        "controlledTerm": "SPECIFIED IN SAP"
      },
      "purpose": {
        "sponsorTermId": "TermEx01_01"
      },
      "methodId": "Mth_06",
      "version": 1,
      "categoryIds": [
        "ANSET_01",
        "ANSET_01_ANINT_04"
      ],
      "dataset": "ADSL",
      "variable": "DURDIS",
      "analysisSetId": "AnalysisSet_01",
      "orderedGroupings": [
        {
          "order": 1,
          "groupingId": "AnlsGrouping_01_Trt01An",
          "resultsByGroup": true
        }
      ],
      "results": [
        {
          "operationId": "Mth_06_01_n",
          "resultGroups": [
            {
              "groupingId": "AnlsGrouping_01_Trt01An",
              "groupId": "AnlsGrouping_01_Trt01An_01"
            }
          ],
          "rawValue": "84",
          "formattedValue": "84"
        },
        {
          "operationId": "Mth_06_01_n",
          "resultGroups": [
            {
              "groupingId": "AnlsGrouping_01_Trt01An",
              "groupId": "AnlsGrouping_01_Trt01An_02"
            }
          ],
          "rawValue": "84",
          "formattedValue": "84"
        },
        {
          "operationId": "Mth_06_01_n",
          "resultGroups": [
            {
              "groupingId": "AnlsGrouping_01_Trt01An",
              "groupId": "AnlsGrouping_01_Trt01An_03"
            }
          ],
          "rawValue": "86",
          "formattedValue": "86"
        },
        {
          "operationId": "Mth_06_02_Mean",
          "resultGroups": [
            {
              "groupingId": "AnlsGrouping_01_Trt01An",
              "groupId": "AnlsGrouping_01_Trt01An_01"
            }
          ],
          "rawValue": "48.691666667",
          "formattedValue": "48.7"
        },
        {
          "operationId": "Mth_06_02_Mean",
          "resultGroups": [
            {
              "groupingId": "AnlsGrouping_01_Trt01An",
              "groupId": "AnlsGrouping_01_Trt01An_02"
            }
          ],
          "rawValue": "40.507142857",
          "formattedValue": "40.5"
        },
        {
          "operationId": "Mth_06_02_Mean",
          "resultGroups": [
            {
              "groupingId": "AnlsGrouping_01_Trt01An",
              "groupId": "AnlsGrouping_01_Trt01An_03"
            }
          ],
          "rawValue": "42.65",
          "formattedValue": "42.6"
        },
        {
          "operationId": "Mth_06_03_SD",
          "resultGroups": [
            {
              "groupingId": "AnlsGrouping_01_Trt01An",
              "groupId": "AnlsGrouping_01_Trt01An_01"
            }
          ],
          "rawValue": "29.584171152",
          "formattedValue": "(29.6)"
        },
        {
          "operationId": "Mth_06_03_SD",
          "resultGroups": [
            {
              "groupingId": "AnlsGrouping_01_Trt01An",
              "groupId": "AnlsGrouping_01_Trt01An_02"
            }
          ],
          "rawValue": "24.693547207",
          "formattedValue": "(24.7)"
        },
        {
          "operationId": "Mth_06_03_SD",
          "resultGroups": [
            {
              "groupingId": "AnlsGrouping_01_Trt01An",
              "groupId": "AnlsGrouping_01_Trt01An_03"
            }
          ],
          "rawValue": "30.241571504",
          "formattedValue": "(30.2)"
        },
        {
          "operationId": "Mth_06_04_Median",
          "resultGroups": [
            {
              "groupingId": "AnlsGrouping_01_Trt01An",
              "groupId": "AnlsGrouping_01_Trt01An_01"
            }
          ],
          "rawValue": "40.25",
          "formattedValue": "40.3"
        },
        {
          "operationId": "Mth_06_04_Median",
          "resultGroups": [
            {
              "groupingId": "AnlsGrouping_01_Trt01An",
              "groupId": "AnlsGrouping_01_Trt01An_02"
            }
          ],
          "rawValue": "35.95",
          "formattedValue": "36.0"
        },
        {
          "operationId": "Mth_06_04_Median",
          "resultGroups": [
            {
              "groupingId": "AnlsGrouping_01_Trt01An",
              "groupId": "AnlsGrouping_01_Trt01An_03"
            }
          ],
          "rawValue": "35.3",
          "formattedValue": "35.3"
        },
        {
          "operationId": "Mth_06_07_Min",
          "resultGroups": [
            {
              "groupingId": "AnlsGrouping_01_Trt01An",
              "groupId": "AnlsGrouping_01_Trt01An_01"
            }
          ],
          "rawValue": "7.8",
          "formattedValue": "8"
        },
        {
          "operationId": "Mth_06_07_Min",
          "resultGroups": [
            {
              "groupingId": "AnlsGrouping_01_Trt01An",
              "groupId": "AnlsGrouping_01_Trt01An_02"
            }
          ],
          "rawValue": "2.2",
          "formattedValue": "2"
        },
        {
          "operationId": "Mth_06_07_Min",
          "resultGroups": [
            {
              "groupingId": "AnlsGrouping_01_Trt01An",
              "groupId": "AnlsGrouping_01_Trt01An_03"
            }
          ],
          "rawValue": "7.2",
          "formattedValue": "7"
        },
        {
          "operationId": "Mth_06_08_Max",
          "resultGroups": [
            {
              "groupingId": "AnlsGrouping_01_Trt01An",
              "groupId": "AnlsGrouping_01_Trt01An_01"
            }
          ],
          "rawValue": "130.8",
          "formattedValue": "131"
        },
        {
          "operationId": "Mth_06_08_Max",
          "resultGroups": [
            {
              "groupingId": "AnlsGrouping_01_Trt01An",
              "groupId": "AnlsGrouping_01_Trt01An_02"
            }
          ],
          "rawValue": "135",
          "formattedValue": "135"
        },
        {
          "operationId": "Mth_06_08_Max",
          "resultGroups": [
            {
              "groupingId": "AnlsGrouping_01_Trt01An",
              "groupId": "AnlsGrouping_01_Trt01An_03"
            }
          ],
          "rawValue": "183.1",
          "formattedValue": "183"
        }
      ]
    },
    {
      "name": "Summary of Duration of Disease (Months)",
      "id": "An_11_Total",
      "reason": {
        "controlledTerm": "SPECIFIED IN SAP"
      },
      "purpose": {
        "sponsorTermId": "TermEx01_01"
      },
      "methodId": "Mth_06",
      "version": 1,
      "categoryIds": [
        "ANSET_01",
        "ANSET_01_ANINT_04"
      ],
      "dataset": "ADSL",
      "variable": "DURDIS",
      "analysisSetId": "AnalysisSet_01",
      "dataSubsetId": "Dss_28",
      "results": [
        {
          "operationId": "Mth_06_01_n",
          "rawValue": "254",
          "formattedValue": "254"
        },
        {
          "operationId": "Mth_06_02_Mean",
          "rawValue": "43.939370079",
          "formattedValue": "43.9"
        },
        {
          "operationId": "Mth_06_03_SD",
          "rawValue": "28.397315626",
          "formattedValue": "(28.4)"
        },
        {
          "operationId": "Mth_06_04_Median",
          "rawValue": "36.25",
          "formattedValue": "36.3"
        },
        {
          "operationId": "Mth_06_07_Min",
          "rawValue": "2.2",
          "formattedValue": "2"
        },
        {
          "operationId": "Mth_06_08_Max",
          "rawValue": "183.1",
          "formattedValue": "183"
        }
      ]
    }
  ],
  "globalDisplaySections": [
    {
      "sectionType": "Header",
      "subSections": [
        {
          "id": "GlobalDisp_Header_01",
          "text": "CDISC - eTFL Portal"
        },
        {
          "id": "GlobalDisp_Header_02",
          "text": "Generated using TFL Designer (Community, v1.0)"
        },
        {
          "id": "GlobalDisp_Header_03",
          "text": "Page x of y"
        }
      ]
    }
  ],
  "outputs": [
    {
      "name": "Baseline Demographic and Clinical Characteristics",
      "id": "Out_01",
      "displays": [
        {
          "order": 1,
          "display": {
            "name": "=B3",
            "id": "Disp_01",
            "version": 1,
            "displayTitle": "=F3",
            "displaySections": [
              {
                "sectionType": "Header",
                "orderedSubSections": [
                  {
                    "order": 1,
                    "subSectionId": "GlobalDisp_Header_01"
                  },
                  {
                    "order": 2,
                    "subSectionId": "GlobalDisp_Header_02"
                  },
                  {
                    "order": 3,
                    "subSectionId": "GlobalDisp_Header_03"
                  }
                ]
              },
              {
                "sectionType": "Title",
                "orderedSubSections": [
                  {
                    "order": 1,
                    "subSection": {
                      "id": "Disp_01_Title_01",
                      "text": "FDA-DM-T02"
                    }
                  },
                  {
                    "order": 2,
                    "subSection": {
                      "id": "Disp_01_Title_02",
                      "text": "Baseline Demographic and Clinical Characteristics"
                    }
                  },
                  {
                    "order": 3,
                    "subSection": {
                      "id": "Disp_01_Title_03",
                      "text": "Safety Population"
                    }
                  }
                ]
              },
              {
                "sectionType": "Footnote",
                "orderedSubSections": [
                  {
                    "order": 1,
                    "subSection": {
                      "id": "Disp_01_Footnote_01",
                      "text": "Source: ADSL; Program name: fda-dm-t02.sas"
                    }
                  },
                  {
                    "order": 2,
                    "subSection": {
                      "id": "Disp_01_Footnote_02",
                      "text": "Abbreviations: N, number of subjects in treatment arm; n, number of subjects with given characteristic; SD, standard deviation"
                    }
                  }
                ]
              },
              {
                "sectionType": "Rowlabel Header",
                "orderedSubSections": [
                  {
                    "order": 1,
                    "subSection": {
                      "id": "Disp_01_RowlabelHeader_01",
                      "text": "Characteristics"
                    }
                  }
                ]
              }
            ]
          }
        }
      ],
      "version": 1,
      "categoryIds": [
        "ANSET_01",
        "ANSET_01_ANINT_04"
      ]
    }
  ],
  "@type": "ReportingEvent"
}