<?xml version="1.0" encoding="UTF-8"?>
<?xml-stylesheet type="text/xsl" href="define2-1-0.xsl"?>
<ODM
     xmlns:xlink="http://www.w3.org/1999/xlink"
     xmlns="http://www.cdisc.org/ns/odm/v1.3"
     xmlns:def="http://www.cdisc.org/ns/def/v2.1"
     xmlns:arm="http://www.cdisc.org/ns/arm/v1.0"
     ODMVersion="1.3.2"
     FileType="Snapshot"
     FileOID="CDISC---eTFL-Portal.ADaMIG.1.3"
     CreationDateTime="2024-10-08T23:54:24-04:00"
     SourceSystem="Pinnacle 21 Community"
     SourceSystemVersion="4.1.0"
     def:Context="Submission">
   <Study OID="CDISC---eTFL-Portal.ADaMIG.1.3">
      <GlobalVariables>
         <StudyName>CDISC - eTFL Portal</StudyName>
         <StudyDescription>Test datasets created by updating existing CDISCPILOT ADaM datasets for eTFL Portal</StudyDescription>
         <ProtocolName>eTFL Portal</ProtocolName>
      </GlobalVariables>
      <MetaDataVersion OID="MDV.CDISC---eTFL-Portal.ADaMIG.1.3"
                       Name="Study CDISC - eTFL Portal Data Definitions"
                       def:DefineVersion="2.1.0">
         <def:Standards>
            <def:Standard OID="STD.ADaMIG 1.3" Name="ADaMIG" Type="IG" Version="1.3" Status="FINAL"/>
            <def:Standard OID="STD.SDTM 2020-12-18" Name="CDISC/NCI" Type="CT" Version="2020-12-18"
                          PublishingSet="SDTM"
                          Status="FINAL"/>
         </def:Standards>
         <def:ValueListDef OID="VL.ADLB.AVAL">
            <ItemRef ItemOID="IT.ADLB.AVAL.ADLB.PARAMCD.EQ.ALB" OrderNumber="1" Mandatory="No">
               <def:WhereClauseRef WhereClauseOID="WC.ADLB.PARAMCD.EQ.ALB"/>
            </ItemRef>
            <ItemRef ItemOID="IT.ADLB.AVAL.ADLB.PARAMCD.EQ.ALP" OrderNumber="2" Mandatory="No">
               <def:WhereClauseRef WhereClauseOID="WC.ADLB.PARAMCD.EQ.ALP"/>
            </ItemRef>
            <ItemRef ItemOID="IT.ADLB.AVAL.ADLB.PARAMCD.EQ.ALT" OrderNumber="3" Mandatory="No">
               <def:WhereClauseRef WhereClauseOID="WC.ADLB.PARAMCD.EQ.ALT"/>
            </ItemRef>
            <ItemRef ItemOID="IT.ADLB.AVAL.ADLB.PARAMCD.EQ.AST" OrderNumber="4" Mandatory="No">
               <def:WhereClauseRef WhereClauseOID="WC.ADLB.PARAMCD.EQ.AST"/>
            </ItemRef>
            <ItemRef ItemOID="IT.ADLB.AVAL.ADLB.PARAMCD.EQ.BILI" OrderNumber="5" Mandatory="No">
               <def:WhereClauseRef WhereClauseOID="WC.ADLB.PARAMCD.EQ.BILI"/>
            </ItemRef>
            <ItemRef ItemOID="IT.ADLB.AVAL.ADLB.PARAMCD.EQ.BUN" OrderNumber="6" Mandatory="No">
               <def:WhereClauseRef WhereClauseOID="WC.ADLB.PARAMCD.EQ.BUN"/>
            </ItemRef>
            <ItemRef ItemOID="IT.ADLB.AVAL.ADLB.PARAMCD.EQ.CA" OrderNumber="7" Mandatory="No">
               <def:WhereClauseRef WhereClauseOID="WC.ADLB.PARAMCD.EQ.CA"/>
            </ItemRef>
            <ItemRef ItemOID="IT.ADLB.AVAL.ADLB.PARAMCD.EQ.CHOL" OrderNumber="8" Mandatory="No">
               <def:WhereClauseRef WhereClauseOID="WC.ADLB.PARAMCD.EQ.CHOL"/>
            </ItemRef>
            <ItemRef ItemOID="IT.ADLB.AVAL.ADLB.PARAMCD.EQ.CK" OrderNumber="9" Mandatory="No">
               <def:WhereClauseRef WhereClauseOID="WC.ADLB.PARAMCD.EQ.CK"/>
            </ItemRef>
            <ItemRef ItemOID="IT.ADLB.AVAL.ADLB.PARAMCD.EQ.CL" OrderNumber="10" Mandatory="No">
               <def:WhereClauseRef WhereClauseOID="WC.ADLB.PARAMCD.EQ.CL"/>
            </ItemRef>
            <ItemRef ItemOID="IT.ADLB.AVAL.ADLB.PARAMCD.EQ.CREAT" OrderNumber="11" Mandatory="No">
               <def:WhereClauseRef WhereClauseOID="WC.ADLB.PARAMCD.EQ.CREAT"/>
            </ItemRef>
            <ItemRef ItemOID="IT.ADLB.AVAL.ADLB.PARAMCD.EQ.GGT" OrderNumber="12" Mandatory="No">
               <def:WhereClauseRef WhereClauseOID="WC.ADLB.PARAMCD.EQ.GGT"/>
            </ItemRef>
            <ItemRef ItemOID="IT.ADLB.AVAL.ADLB.PARAMCD.EQ.GLUC" OrderNumber="13" Mandatory="No">
               <def:WhereClauseRef WhereClauseOID="WC.ADLB.PARAMCD.EQ.GLUC"/>
            </ItemRef>
            <ItemRef ItemOID="IT.ADLB.AVAL.ADLB.PARAMCD.EQ.K" OrderNumber="14" Mandatory="No">
               <def:WhereClauseRef WhereClauseOID="WC.ADLB.PARAMCD.EQ.K"/>
            </ItemRef>
            <ItemRef ItemOID="IT.ADLB.AVAL.ADLB.PARAMCD.EQ.PHOS" OrderNumber="15" Mandatory="No">
               <def:WhereClauseRef WhereClauseOID="WC.ADLB.PARAMCD.EQ.PHOS"/>
            </ItemRef>
            <ItemRef ItemOID="IT.ADLB.AVAL.ADLB.PARAMCD.EQ.PROT" OrderNumber="16" Mandatory="No">
               <def:WhereClauseRef WhereClauseOID="WC.ADLB.PARAMCD.EQ.PROT"/>
            </ItemRef>
            <ItemRef ItemOID="IT.ADLB.AVAL.ADLB.PARAMCD.EQ.SODIUM" OrderNumber="17" Mandatory="No">
               <def:WhereClauseRef WhereClauseOID="WC.ADLB.PARAMCD.EQ.SODIUM"/>
            </ItemRef>
            <ItemRef ItemOID="IT.ADLB.AVAL.ADLB.PARAMCD.EQ.URATE" OrderNumber="18" Mandatory="No">
               <def:WhereClauseRef WhereClauseOID="WC.ADLB.PARAMCD.EQ.URATE"/>
            </ItemRef>
            <ItemRef ItemOID="IT.ADLB.AVAL.ADLB.PARAMCD.EQ.ANISO" OrderNumber="19" Mandatory="No">
               <def:WhereClauseRef WhereClauseOID="WC.ADLB.PARAMCD.EQ.ANISO"/>
            </ItemRef>
            <ItemRef ItemOID="IT.ADLB.AVAL.ADLB.PARAMCD.EQ.BASO" OrderNumber="20" Mandatory="No">
               <def:WhereClauseRef WhereClauseOID="WC.ADLB.PARAMCD.EQ.BASO"/>
            </ItemRef>
            <ItemRef ItemOID="IT.ADLB.AVAL.ADLB.PARAMCD.EQ.EOS" OrderNumber="21" Mandatory="No">
               <def:WhereClauseRef WhereClauseOID="WC.ADLB.PARAMCD.EQ.EOS"/>
            </ItemRef>
            <ItemRef ItemOID="IT.ADLB.AVAL.ADLB.PARAMCD.EQ.HCT" OrderNumber="22" Mandatory="No">
               <def:WhereClauseRef WhereClauseOID="WC.ADLB.PARAMCD.EQ.HCT"/>
            </ItemRef>
            <ItemRef ItemOID="IT.ADLB.AVAL.ADLB.PARAMCD.EQ.HGB" OrderNumber="23" Mandatory="No">
               <def:WhereClauseRef WhereClauseOID="WC.ADLB.PARAMCD.EQ.HGB"/>
            </ItemRef>
            <ItemRef ItemOID="IT.ADLB.AVAL.ADLB.PARAMCD.EQ.LYM" OrderNumber="24" Mandatory="No">
               <def:WhereClauseRef WhereClauseOID="WC.ADLB.PARAMCD.EQ.LYM"/>
            </ItemRef>
            <ItemRef ItemOID="IT.ADLB.AVAL.ADLB.PARAMCD.EQ.MACROCY" OrderNumber="25" Mandatory="No">
               <def:WhereClauseRef WhereClauseOID="WC.ADLB.PARAMCD.EQ.MACROCY"/>
            </ItemRef>
            <ItemRef ItemOID="IT.ADLB.AVAL.ADLB.PARAMCD.EQ.MCH" OrderNumber="26" Mandatory="No">
               <def:WhereClauseRef WhereClauseOID="WC.ADLB.PARAMCD.EQ.MCH"/>
            </ItemRef>
            <ItemRef ItemOID="IT.ADLB.AVAL.ADLB.PARAMCD.EQ.MCHC" OrderNumber="27" Mandatory="No">
               <def:WhereClauseRef WhereClauseOID="WC.ADLB.PARAMCD.EQ.MCHC"/>
            </ItemRef>
            <ItemRef ItemOID="IT.ADLB.AVAL.ADLB.PARAMCD.EQ.MCV" OrderNumber="28" Mandatory="No">
               <def:WhereClauseRef WhereClauseOID="WC.ADLB.PARAMCD.EQ.MCV"/>
            </ItemRef>
            <ItemRef ItemOID="IT.ADLB.AVAL.ADLB.PARAMCD.EQ.MICROCY" OrderNumber="29" Mandatory="No">
               <def:WhereClauseRef WhereClauseOID="WC.ADLB.PARAMCD.EQ.MICROCY"/>
            </ItemRef>
            <ItemRef ItemOID="IT.ADLB.AVAL.ADLB.PARAMCD.EQ.MONO" OrderNumber="30" Mandatory="No">
               <def:WhereClauseRef WhereClauseOID="WC.ADLB.PARAMCD.EQ.MONO"/>
            </ItemRef>
            <ItemRef ItemOID="IT.ADLB.AVAL.ADLB.PARAMCD.EQ.PLAT" OrderNumber="31" Mandatory="No">
               <def:WhereClauseRef WhereClauseOID="WC.ADLB.PARAMCD.EQ.PLAT"/>
            </ItemRef>
            <ItemRef ItemOID="IT.ADLB.AVAL.ADLB.PARAMCD.EQ.POIKILO" OrderNumber="32" Mandatory="No">
               <def:WhereClauseRef WhereClauseOID="WC.ADLB.PARAMCD.EQ.POIKILO"/>
            </ItemRef>
            <ItemRef ItemOID="IT.ADLB.AVAL.ADLB.PARAMCD.EQ.POLYCHR" OrderNumber="33" Mandatory="No">
               <def:WhereClauseRef WhereClauseOID="WC.ADLB.PARAMCD.EQ.POLYCHR"/>
            </ItemRef>
            <ItemRef ItemOID="IT.ADLB.AVAL.ADLB.PARAMCD.EQ.RBC" OrderNumber="34" Mandatory="No">
               <def:WhereClauseRef WhereClauseOID="WC.ADLB.PARAMCD.EQ.RBC"/>
            </ItemRef>
            <ItemRef ItemOID="IT.ADLB.AVAL.ADLB.PARAMCD.EQ.WBC" OrderNumber="35" Mandatory="No">
               <def:WhereClauseRef WhereClauseOID="WC.ADLB.PARAMCD.EQ.WBC"/>
            </ItemRef>
         </def:ValueListDef>
         <def:WhereClauseDef OID="WC.ADLB.PARAMCD.EQ.ALB">
            <RangeCheck SoftHard="Soft" def:ItemOID="IT.ADLB.PARAMCD" Comparator="EQ">
               <CheckValue>ALB</CheckValue>
            </RangeCheck>
         </def:WhereClauseDef>
         <def:WhereClauseDef OID="WC.ADLB.PARAMCD.EQ.ALP">
            <RangeCheck SoftHard="Soft" def:ItemOID="IT.ADLB.PARAMCD" Comparator="EQ">
               <CheckValue>ALP</CheckValue>
            </RangeCheck>
         </def:WhereClauseDef>
         <def:WhereClauseDef OID="WC.ADLB.PARAMCD.EQ.ALT">
            <RangeCheck SoftHard="Soft" def:ItemOID="IT.ADLB.PARAMCD" Comparator="EQ">
               <CheckValue>ALT</CheckValue>
            </RangeCheck>
         </def:WhereClauseDef>
         <def:WhereClauseDef OID="WC.ADLB.PARAMCD.EQ.AST">
            <RangeCheck SoftHard="Soft" def:ItemOID="IT.ADLB.PARAMCD" Comparator="EQ">
               <CheckValue>AST</CheckValue>
            </RangeCheck>
         </def:WhereClauseDef>
         <def:WhereClauseDef OID="WC.ADLB.PARAMCD.EQ.BILI">
            <RangeCheck SoftHard="Soft" def:ItemOID="IT.ADLB.PARAMCD" Comparator="EQ">
               <CheckValue>BILI</CheckValue>
            </RangeCheck>
         </def:WhereClauseDef>
         <def:WhereClauseDef OID="WC.ADLB.PARAMCD.EQ.BUN">
            <RangeCheck SoftHard="Soft" def:ItemOID="IT.ADLB.PARAMCD" Comparator="EQ">
               <CheckValue>BUN</CheckValue>
            </RangeCheck>
         </def:WhereClauseDef>
         <def:WhereClauseDef OID="WC.ADLB.PARAMCD.EQ.CA">
            <RangeCheck SoftHard="Soft" def:ItemOID="IT.ADLB.PARAMCD" Comparator="EQ">
               <CheckValue>CA</CheckValue>
            </RangeCheck>
         </def:WhereClauseDef>
         <def:WhereClauseDef OID="WC.ADLB.PARAMCD.EQ.CHOL">
            <RangeCheck SoftHard="Soft" def:ItemOID="IT.ADLB.PARAMCD" Comparator="EQ">
               <CheckValue>CHOL</CheckValue>
            </RangeCheck>
         </def:WhereClauseDef>
         <def:WhereClauseDef OID="WC.ADLB.PARAMCD.EQ.CK">
            <RangeCheck SoftHard="Soft" def:ItemOID="IT.ADLB.PARAMCD" Comparator="EQ">
               <CheckValue>CK</CheckValue>
            </RangeCheck>
         </def:WhereClauseDef>
         <def:WhereClauseDef OID="WC.ADLB.PARAMCD.EQ.CL">
            <RangeCheck SoftHard="Soft" def:ItemOID="IT.ADLB.PARAMCD" Comparator="EQ">
               <CheckValue>CL</CheckValue>
            </RangeCheck>
         </def:WhereClauseDef>
         <def:WhereClauseDef OID="WC.ADLB.PARAMCD.EQ.CREAT">
            <RangeCheck SoftHard="Soft" def:ItemOID="IT.ADLB.PARAMCD" Comparator="EQ">
               <CheckValue>CREAT</CheckValue>
            </RangeCheck>
         </def:WhereClauseDef>
         <def:WhereClauseDef OID="WC.ADLB.PARAMCD.EQ.GGT">
            <RangeCheck SoftHard="Soft" def:ItemOID="IT.ADLB.PARAMCD" Comparator="EQ">
               <CheckValue>GGT</CheckValue>
            </RangeCheck>
         </def:WhereClauseDef>
         <def:WhereClauseDef OID="WC.ADLB.PARAMCD.EQ.GLUC">
            <RangeCheck SoftHard="Soft" def:ItemOID="IT.ADLB.PARAMCD" Comparator="EQ">
               <CheckValue>GLUC</CheckValue>
            </RangeCheck>
         </def:WhereClauseDef>
         <def:WhereClauseDef OID="WC.ADLB.PARAMCD.EQ.K">
            <RangeCheck SoftHard="Soft" def:ItemOID="IT.ADLB.PARAMCD" Comparator="EQ">
               <CheckValue>K</CheckValue>
            </RangeCheck>
         </def:WhereClauseDef>
         <def:WhereClauseDef OID="WC.ADLB.PARAMCD.EQ.PHOS">
            <RangeCheck SoftHard="Soft" def:ItemOID="IT.ADLB.PARAMCD" Comparator="EQ">
               <CheckValue>PHOS</CheckValue>
            </RangeCheck>
         </def:WhereClauseDef>
         <def:WhereClauseDef OID="WC.ADLB.PARAMCD.EQ.PROT">
            <RangeCheck SoftHard="Soft" def:ItemOID="IT.ADLB.PARAMCD" Comparator="EQ">
               <CheckValue>PROT</CheckValue>
            </RangeCheck>
         </def:WhereClauseDef>
         <def:WhereClauseDef OID="WC.ADLB.PARAMCD.EQ.SODIUM">
            <RangeCheck SoftHard="Soft" def:ItemOID="IT.ADLB.PARAMCD" Comparator="EQ">
               <CheckValue>SODIUM</CheckValue>
            </RangeCheck>
         </def:WhereClauseDef>
         <def:WhereClauseDef OID="WC.ADLB.PARAMCD.EQ.URATE">
            <RangeCheck SoftHard="Soft" def:ItemOID="IT.ADLB.PARAMCD" Comparator="EQ">
               <CheckValue>URATE</CheckValue>
            </RangeCheck>
         </def:WhereClauseDef>
         <def:WhereClauseDef OID="WC.ADLB.PARAMCD.EQ.ANISO">
            <RangeCheck SoftHard="Soft" def:ItemOID="IT.ADLB.PARAMCD" Comparator="EQ">
               <CheckValue>ANISO</CheckValue>
            </RangeCheck>
         </def:WhereClauseDef>
         <def:WhereClauseDef OID="WC.ADLB.PARAMCD.EQ.BASO">
            <RangeCheck SoftHard="Soft" def:ItemOID="IT.ADLB.PARAMCD" Comparator="EQ">
               <CheckValue>BASO</CheckValue>
            </RangeCheck>
         </def:WhereClauseDef>
         <def:WhereClauseDef OID="WC.ADLB.PARAMCD.EQ.EOS">
            <RangeCheck SoftHard="Soft" def:ItemOID="IT.ADLB.PARAMCD" Comparator="EQ">
               <CheckValue>EOS</CheckValue>
            </RangeCheck>
         </def:WhereClauseDef>
         <def:WhereClauseDef OID="WC.ADLB.PARAMCD.EQ.HCT">
            <RangeCheck SoftHard="Soft" def:ItemOID="IT.ADLB.PARAMCD" Comparator="EQ">
               <CheckValue>HCT</CheckValue>
            </RangeCheck>
         </def:WhereClauseDef>
         <def:WhereClauseDef OID="WC.ADLB.PARAMCD.EQ.HGB">
            <RangeCheck SoftHard="Soft" def:ItemOID="IT.ADLB.PARAMCD" Comparator="EQ">
               <CheckValue>HGB</CheckValue>
            </RangeCheck>
         </def:WhereClauseDef>
         <def:WhereClauseDef OID="WC.ADLB.PARAMCD.EQ.LYM">
            <RangeCheck SoftHard="Soft" def:ItemOID="IT.ADLB.PARAMCD" Comparator="EQ">
               <CheckValue>LYM</CheckValue>
            </RangeCheck>
         </def:WhereClauseDef>
         <def:WhereClauseDef OID="WC.ADLB.PARAMCD.EQ.MACROCY">
            <RangeCheck SoftHard="Soft" def:ItemOID="IT.ADLB.PARAMCD" Comparator="EQ">
               <CheckValue>MACROCY</CheckValue>
            </RangeCheck>
         </def:WhereClauseDef>
         <def:WhereClauseDef OID="WC.ADLB.PARAMCD.EQ.MCH">
            <RangeCheck SoftHard="Soft" def:ItemOID="IT.ADLB.PARAMCD" Comparator="EQ">
               <CheckValue>MCH</CheckValue>
            </RangeCheck>
         </def:WhereClauseDef>
         <def:WhereClauseDef OID="WC.ADLB.PARAMCD.EQ.MCHC">
            <RangeCheck SoftHard="Soft" def:ItemOID="IT.ADLB.PARAMCD" Comparator="EQ">
               <CheckValue>MCHC</CheckValue>
            </RangeCheck>
         </def:WhereClauseDef>
         <def:WhereClauseDef OID="WC.ADLB.PARAMCD.EQ.MCV">
            <RangeCheck SoftHard="Soft" def:ItemOID="IT.ADLB.PARAMCD" Comparator="EQ">
               <CheckValue>MCV</CheckValue>
            </RangeCheck>
         </def:WhereClauseDef>
         <def:WhereClauseDef OID="WC.ADLB.PARAMCD.EQ.MICROCY">
            <RangeCheck SoftHard="Soft" def:ItemOID="IT.ADLB.PARAMCD" Comparator="EQ">
               <CheckValue>MICROCY</CheckValue>
            </RangeCheck>
         </def:WhereClauseDef>
         <def:WhereClauseDef OID="WC.ADLB.PARAMCD.EQ.MONO">
            <RangeCheck SoftHard="Soft" def:ItemOID="IT.ADLB.PARAMCD" Comparator="EQ">
               <CheckValue>MONO</CheckValue>
            </RangeCheck>
         </def:WhereClauseDef>
         <def:WhereClauseDef OID="WC.ADLB.PARAMCD.EQ.PLAT">
            <RangeCheck SoftHard="Soft" def:ItemOID="IT.ADLB.PARAMCD" Comparator="EQ">
               <CheckValue>PLAT</CheckValue>
            </RangeCheck>
         </def:WhereClauseDef>
         <def:WhereClauseDef OID="WC.ADLB.PARAMCD.EQ.POIKILO">
            <RangeCheck SoftHard="Soft" def:ItemOID="IT.ADLB.PARAMCD" Comparator="EQ">
               <CheckValue>POIKILO</CheckValue>
            </RangeCheck>
         </def:WhereClauseDef>
         <def:WhereClauseDef OID="WC.ADLB.PARAMCD.EQ.POLYCHR">
            <RangeCheck SoftHard="Soft" def:ItemOID="IT.ADLB.PARAMCD" Comparator="EQ">
               <CheckValue>POLYCHR</CheckValue>
            </RangeCheck>
         </def:WhereClauseDef>
         <def:WhereClauseDef OID="WC.ADLB.PARAMCD.EQ.RBC">
            <RangeCheck SoftHard="Soft" def:ItemOID="IT.ADLB.PARAMCD" Comparator="EQ">
               <CheckValue>RBC</CheckValue>
            </RangeCheck>
         </def:WhereClauseDef>
         <def:WhereClauseDef OID="WC.ADLB.PARAMCD.EQ.WBC">
            <RangeCheck SoftHard="Soft" def:ItemOID="IT.ADLB.PARAMCD" Comparator="EQ">
               <CheckValue>WBC</CheckValue>
            </RangeCheck>
         </def:WhereClauseDef>
         <ItemGroupDef OID="IG.ADSL" Name="ADSL" Repeating="Yes" IsReferenceData="No"
                       SASDatasetName="ADSL"
                       Purpose="Analysis"
                       def:Structure="One record per subject"
                       def:ArchiveLocationID="LF.ADSL"
                       def:StandardOID="STD.ADaMIG 1.3">
            <Description>
               <TranslatedText>Subject-Level Analysis</TranslatedText>
            </Description>
            <ItemRef ItemOID="IT.ADSL.STUDYID" Mandatory="Yes" OrderNumber="1" KeySequence="1"/>
            <ItemRef ItemOID="IT.ADSL.USUBJID" Mandatory="Yes" OrderNumber="2" KeySequence="2"/>
            <ItemRef ItemOID="IT.ADSL.SAFFL" Mandatory="No" OrderNumber="3"
                     MethodOID="MT.ADSL.SAFFL"/>
            <ItemRef ItemOID="IT.ADSL.TRT01A" Mandatory="No" OrderNumber="4"
                     MethodOID="MT.ADSL.TRT01A"/>
            <ItemRef ItemOID="IT.ADSL.TRT01AN" Mandatory="No" OrderNumber="5"
                     MethodOID="MT.ADSL.TRT01AN"/>
            <def:Class Name="SUBJECT LEVEL ANALYSIS DATASET"/>
            <def:leaf ID="LF.ADSL" xlink:href="adsl.xpt">
               <def:title>adsl.xpt</def:title>
            </def:leaf>
         </ItemGroupDef>
         <ItemGroupDef OID="IG.ADLB" Name="ADLB" Repeating="Yes" IsReferenceData="No"
                       SASDatasetName="ADLB"
                       Purpose="Analysis"
                       def:Structure="One or more records per subject per analysis parameter per analysis timepoint"
                       def:ArchiveLocationID="LF.ADLB"
                       def:StandardOID="STD.ADaMIG 1.3">
            <Description>
               <TranslatedText>Laboratory Analysis Dataset</TranslatedText>
            </Description>
            <ItemRef ItemOID="IT.ADLB.STUDYID" Mandatory="Yes" OrderNumber="1" KeySequence="1"/>
            <ItemRef ItemOID="IT.ADLB.USUBJID" Mandatory="Yes" OrderNumber="2" KeySequence="2"/>
            <ItemRef ItemOID="IT.ADLB.TRTA" Mandatory="No" OrderNumber="3"/>
            <ItemRef ItemOID="IT.ADLB.TRTAN" Mandatory="No" OrderNumber="4"/>
            <ItemRef ItemOID="IT.ADLB.PARAM" Mandatory="Yes" OrderNumber="5" KeySequence="3"
                     MethodOID="MT.ADLB.PARAM"/>
            <ItemRef ItemOID="IT.ADLB.PARAMCD" Mandatory="Yes" OrderNumber="6" KeySequence="4"
                     MethodOID="MT.ADLB.PARAMCD"/>
            <ItemRef ItemOID="IT.ADLB.AVISIT" Mandatory="No" OrderNumber="7"
                     MethodOID="MT.ADLB.AVISIT"/>
            <ItemRef ItemOID="IT.ADLB.AVISITN" Mandatory="No" OrderNumber="8"/>
            <ItemRef ItemOID="IT.ADLB.VISIT" Mandatory="No" OrderNumber="9"/>
            <ItemRef ItemOID="IT.ADLB.VISITNUM" Mandatory="No" OrderNumber="10"/>
            <ItemRef ItemOID="IT.ADLB.PARAMN" Mandatory="No" OrderNumber="11"/>
            <ItemRef ItemOID="IT.ADLB.PARCAT1" Mandatory="No" OrderNumber="12"/>
            <ItemRef ItemOID="IT.ADLB.AVAL" Mandatory="No" OrderNumber="13" KeySequence="5"/>
            <ItemRef ItemOID="IT.ADLB.BASE" Mandatory="No" OrderNumber="14" MethodOID="MT.ADLB.BASE"/>
            <ItemRef ItemOID="IT.ADLB.CHG" Mandatory="No" OrderNumber="15" MethodOID="MT.CHG"/>
            <def:Class Name="BASIC DATA STRUCTURE"/>
            <def:leaf ID="LF.ADLB" xlink:href="adlb.xpt">
               <def:title>adlb.xpt</def:title>
            </def:leaf>
         </ItemGroupDef>
         <ItemDef OID="IT.ADSL.STUDYID" Name="STUDYID" DataType="text" Length="12"
                  SASFieldName="STUDYID">
            <Description>
               <TranslatedText>Study Identifier</TranslatedText>
            </Description>
            <def:Origin Type="Predecessor">
               <Description>
                  <TranslatedText>DM.STUDYID</TranslatedText>
               </Description>
            </def:Origin>
         </ItemDef>
         <ItemDef OID="IT.ADSL.USUBJID" Name="USUBJID" DataType="text" Length="11"
                  SASFieldName="USUBJID">
            <Description>
               <TranslatedText>Unique Subject Identifier</TranslatedText>
            </Description>
            <def:Origin Type="Predecessor">
               <Description>
                  <TranslatedText>DM.USUBJID</TranslatedText>
               </Description>
            </def:Origin>
         </ItemDef>
         <ItemDef OID="IT.ADSL.SAFFL" Name="SAFFL" DataType="text" Length="1"
                  SASFieldName="SAFFL">
            <Description>
               <TranslatedText>Safety Population Flag</TranslatedText>
            </Description>
            <CodeListRef CodeListOID="CL.YN"/>
            <def:Origin Type="Derived" Source="Sponsor"/>
         </ItemDef>
         <ItemDef OID="IT.ADSL.TRT01A" Name="TRT01A" DataType="text" Length="20"
                  SASFieldName="TRT01A">
            <Description>
               <TranslatedText>Actual Treatment for Period 01</TranslatedText>
            </Description>
            <CodeListRef CodeListOID="CL.ARM"/>
            <def:Origin Type="Derived" Source="Sponsor"/>
         </ItemDef>
         <ItemDef OID="IT.ADSL.TRT01AN" Name="TRT01AN" DataType="integer" Length="8"
                  SASFieldName="TRT01AN">
            <Description>
               <TranslatedText>Actual Treatment for Period 01 (N)</TranslatedText>
            </Description>
            <CodeListRef CodeListOID="CL.ARMN"/>
            <def:Origin Type="Derived" Source="Sponsor"/>
         </ItemDef>
         <ItemDef OID="IT.ADLB.STUDYID" Name="STUDYID" DataType="text" Length="12"
                  SASFieldName="STUDYID">
            <Description>
               <TranslatedText>Study Identifier</TranslatedText>
            </Description>
            <def:Origin Type="Predecessor">
               <Description>
                  <TranslatedText>ADSL.STUDYID</TranslatedText>
               </Description>
            </def:Origin>
         </ItemDef>
         <ItemDef OID="IT.ADLB.USUBJID" Name="USUBJID" DataType="text" Length="11"
                  SASFieldName="USUBJID">
            <Description>
               <TranslatedText>Unique Subject Identifier</TranslatedText>
            </Description>
            <def:Origin Type="Predecessor">
               <Description>
                  <TranslatedText>LB.USUBJID</TranslatedText>
               </Description>
            </def:Origin>
         </ItemDef>
         <ItemDef OID="IT.ADLB.TRTA" Name="TRTA" DataType="text" Length="20" SASFieldName="TRTA">
            <Description>
               <TranslatedText>Actual Treatment</TranslatedText>
            </Description>
            <CodeListRef CodeListOID="CL.ARM"/>
            <def:Origin Type="Predecessor">
               <Description>
                  <TranslatedText>ADSL.TRT01A</TranslatedText>
               </Description>
            </def:Origin>
         </ItemDef>
         <ItemDef OID="IT.ADLB.TRTAN" Name="TRTAN" DataType="integer" Length="8"
                  SASFieldName="TRTAN">
            <Description>
               <TranslatedText>Actual Treatment (N)</TranslatedText>
            </Description>
            <CodeListRef CodeListOID="CL.ARMN"/>
            <def:Origin Type="Predecessor">
               <Description>
                  <TranslatedText>ADSL.TRT01AN</TranslatedText>
               </Description>
            </def:Origin>
         </ItemDef>
         <ItemDef OID="IT.ADLB.PARAM" Name="PARAM" DataType="text" Length="48"
                  SASFieldName="PARAM">
            <Description>
               <TranslatedText>Parameter</TranslatedText>
            </Description>
            <CodeListRef CodeListOID="CL.PARAM_ADLB"/>
            <def:Origin Type="Derived" Source="Sponsor"/>
         </ItemDef>
         <ItemDef OID="IT.ADLB.PARAMCD" Name="PARAMCD" DataType="text" Length="7"
                  SASFieldName="PARAMCD">
            <Description>
               <TranslatedText>Parameter Code</TranslatedText>
            </Description>
            <CodeListRef CodeListOID="CL.PARAMCD_ADLB"/>
            <def:Origin Type="Derived" Source="Sponsor"/>
         </ItemDef>
         <ItemDef OID="IT.ADLB.AVISIT" Name="AVISIT" DataType="text" Length="16"
                  SASFieldName="AVISIT">
            <Description>
               <TranslatedText>Analysis Visit</TranslatedText>
            </Description>
            <CodeListRef CodeListOID="CL.ADLB.AVISIT"/>
            <def:Origin Type="Derived" Source="Sponsor"/>
         </ItemDef>
         <ItemDef OID="IT.ADLB.AVISITN" Name="AVISITN" DataType="integer" Length="8"
                  SASFieldName="AVISITN"
                  def:CommentOID="COM.AVISITN">
            <Description>
               <TranslatedText>Analysis Visit (N)</TranslatedText>
            </Description>
            <CodeListRef CodeListOID="CL.ADLB.AVISITN"/>
            <def:Origin Type="Assigned" Source="Sponsor"/>
         </ItemDef>
         <ItemDef OID="IT.ADLB.VISIT" Name="VISIT" DataType="text" Length="16"
                  SASFieldName="VISIT">
            <Description>
               <TranslatedText>Visit Name</TranslatedText>
            </Description>
            <CodeListRef CodeListOID="CL.ADLB.VISIT"/>
            <def:Origin Type="Predecessor">
               <Description>
                  <TranslatedText>LB.VISIT</TranslatedText>
               </Description>
            </def:Origin>
         </ItemDef>
         <ItemDef OID="IT.ADLB.VISITNUM" Name="VISITNUM" DataType="float" Length="3"
                  SignificantDigits="1"
                  SASFieldName="VISITNUM">
            <Description>
               <TranslatedText>Visit Number</TranslatedText>
            </Description>
            <CodeListRef CodeListOID="CL.ADLB.VISITNUM"/>
            <def:Origin Type="Predecessor">
               <Description>
                  <TranslatedText>LB.VISITNUM</TranslatedText>
               </Description>
            </def:Origin>
         </ItemDef>
         <ItemDef OID="IT.ADLB.PARAMN" Name="PARAMN" DataType="integer" Length="8"
                  SASFieldName="PARAMN"
                  def:CommentOID="COM.PARAMN">
            <Description>
               <TranslatedText>Parameter (N)</TranslatedText>
            </Description>
            <CodeListRef CodeListOID="CL.PARAMN_ADLB"/>
            <def:Origin Type="Assigned" Source="Sponsor"/>
         </ItemDef>
         <ItemDef OID="IT.ADLB.PARCAT1" Name="PARCAT1" DataType="text" Length="4"
                  SASFieldName="PARCAT1"
                  def:CommentOID="COM.ADLB.PARCAT1">
            <Description>
               <TranslatedText>Parameter Category 1</TranslatedText>
            </Description>
            <CodeListRef CodeListOID="CL.ADLBCAT"/>
            <def:Origin Type="Assigned" Source="Sponsor"/>
         </ItemDef>
         <ItemDef OID="IT.ADLB.AVAL" Name="AVAL" DataType="float" Length="9"
                  SignificantDigits="5"
                  SASFieldName="AVAL"
                  def:CommentOID="COM.VLM">
            <Description>
               <TranslatedText>Analysis Value</TranslatedText>
            </Description>
            <def:Origin Type="Assigned"/>
            <def:ValueListRef ValueListOID="VL.ADLB.AVAL"/>
         </ItemDef>
         <ItemDef OID="IT.ADLB.BASE" Name="BASE" DataType="float" Length="8"
                  SignificantDigits="5"
                  SASFieldName="BASE">
            <Description>
               <TranslatedText>Baseline Value</TranslatedText>
            </Description>
            <def:Origin Type="Derived" Source="Sponsor"/>
         </ItemDef>
         <ItemDef OID="IT.ADLB.CHG" Name="CHG" DataType="float" Length="9" SignificantDigits="5"
                  SASFieldName="CHG">
            <Description>
               <TranslatedText>Change from Baseline</TranslatedText>
            </Description>
            <def:Origin Type="Derived" Source="Sponsor"/>
         </ItemDef>
         <ItemDef OID="IT.ADLB.AVAL.ADLB.PARAMCD.EQ.ALB" Name="AVAL.ADLB.PARAMCD.EQ.ALB"
                  DataType="integer"
                  Length="2"
                  SASFieldName="AVAL">
            <def:Origin Type="Predecessor">
               <Description>
                  <TranslatedText>LB.LBSTRESN</TranslatedText>
               </Description>
            </def:Origin>
         </ItemDef>
         <ItemDef OID="IT.ADLB.AVAL.ADLB.PARAMCD.EQ.ALP" Name="AVAL.ADLB.PARAMCD.EQ.ALP"
                  DataType="integer"
                  Length="3"
                  SASFieldName="AVAL">
            <def:Origin Type="Predecessor">
               <Description>
                  <TranslatedText>LB.LBSTRESN</TranslatedText>
               </Description>
            </def:Origin>
         </ItemDef>
         <ItemDef OID="IT.ADLB.AVAL.ADLB.PARAMCD.EQ.ALT" Name="AVAL.ADLB.PARAMCD.EQ.ALT"
                  DataType="integer"
                  Length="3"
                  SASFieldName="AVAL">
            <def:Origin Type="Predecessor">
               <Description>
                  <TranslatedText>LB.LBSTRESN</TranslatedText>
               </Description>
            </def:Origin>
         </ItemDef>
         <ItemDef OID="IT.ADLB.AVAL.ADLB.PARAMCD.EQ.AST" Name="AVAL.ADLB.PARAMCD.EQ.AST"
                  DataType="integer"
                  Length="3"
                  SASFieldName="AVAL">
            <def:Origin Type="Predecessor">
               <Description>
                  <TranslatedText>LB.LBSTRESN</TranslatedText>
               </Description>
            </def:Origin>
         </ItemDef>
         <ItemDef OID="IT.ADLB.AVAL.ADLB.PARAMCD.EQ.BILI" Name="AVAL.ADLB.PARAMCD.EQ.BILI"
                  DataType="float"
                  Length="6"
                  SignificantDigits="2"
                  SASFieldName="AVAL">
            <def:Origin Type="Predecessor">
               <Description>
                  <TranslatedText>LB.LBSTRESN</TranslatedText>
               </Description>
            </def:Origin>
         </ItemDef>
         <ItemDef OID="IT.ADLB.AVAL.ADLB.PARAMCD.EQ.BUN" Name="AVAL.ADLB.PARAMCD.EQ.BUN"
                  DataType="float"
                  Length="6"
                  SignificantDigits="3"
                  SASFieldName="AVAL">
            <def:Origin Type="Predecessor">
               <Description>
                  <TranslatedText>LB.LBSTRESN</TranslatedText>
               </Description>
            </def:Origin>
         </ItemDef>
         <ItemDef OID="IT.ADLB.AVAL.ADLB.PARAMCD.EQ.CA" Name="AVAL.ADLB.PARAMCD.EQ.CA"
                  DataType="float"
                  Length="7"
                  SignificantDigits="5"
                  SASFieldName="AVAL">
            <def:Origin Type="Predecessor">
               <Description>
                  <TranslatedText>LB.LBSTRESN</TranslatedText>
               </Description>
            </def:Origin>
         </ItemDef>
         <ItemDef OID="IT.ADLB.AVAL.ADLB.PARAMCD.EQ.CHOL" Name="AVAL.ADLB.PARAMCD.EQ.CHOL"
                  DataType="float"
                  Length="8"
                  SignificantDigits="5"
                  SASFieldName="AVAL">
            <def:Origin Type="Predecessor">
               <Description>
                  <TranslatedText>LB.LBSTRESN</TranslatedText>
               </Description>
            </def:Origin>
         </ItemDef>
         <ItemDef OID="IT.ADLB.AVAL.ADLB.PARAMCD.EQ.CK" Name="AVAL.ADLB.PARAMCD.EQ.CK"
                  DataType="integer"
                  Length="4"
                  SASFieldName="AVAL">
            <def:Origin Type="Predecessor">
               <Description>
                  <TranslatedText>LB.LBSTRESN</TranslatedText>
               </Description>
            </def:Origin>
         </ItemDef>
         <ItemDef OID="IT.ADLB.AVAL.ADLB.PARAMCD.EQ.CL" Name="AVAL.ADLB.PARAMCD.EQ.CL"
                  DataType="integer"
                  Length="3"
                  SASFieldName="AVAL">
            <def:Origin Type="Predecessor">
               <Description>
                  <TranslatedText>LB.LBSTRESN</TranslatedText>
               </Description>
            </def:Origin>
         </ItemDef>
         <ItemDef OID="IT.ADLB.AVAL.ADLB.PARAMCD.EQ.CREAT" Name="AVAL.ADLB.PARAMCD.EQ.CREAT"
                  DataType="float"
                  Length="6"
                  SignificantDigits="2"
                  SASFieldName="AVAL">
            <def:Origin Type="Predecessor">
               <Description>
                  <TranslatedText>LB.LBSTRESN</TranslatedText>
               </Description>
            </def:Origin>
         </ItemDef>
         <ItemDef OID="IT.ADLB.AVAL.ADLB.PARAMCD.EQ.GGT" Name="AVAL.ADLB.PARAMCD.EQ.GGT"
                  DataType="integer"
                  Length="3"
                  SASFieldName="AVAL">
            <def:Origin Type="Predecessor">
               <Description>
                  <TranslatedText>LB.LBSTRESN</TranslatedText>
               </Description>
            </def:Origin>
         </ItemDef>
         <ItemDef OID="IT.ADLB.AVAL.ADLB.PARAMCD.EQ.GLUC" Name="AVAL.ADLB.PARAMCD.EQ.GLUC"
                  DataType="float"
                  Length="8"
                  SignificantDigits="5"
                  SASFieldName="AVAL">
            <def:Origin Type="Predecessor">
               <Description>
                  <TranslatedText>LB.LBSTRESN</TranslatedText>
               </Description>
            </def:Origin>
         </ItemDef>
         <ItemDef OID="IT.ADLB.AVAL.ADLB.PARAMCD.EQ.K" Name="AVAL.ADLB.PARAMCD.EQ.K"
                  DataType="float"
                  Length="3"
                  SignificantDigits="1"
                  SASFieldName="AVAL">
            <def:Origin Type="Predecessor">
               <Description>
                  <TranslatedText>LB.LBSTRESN</TranslatedText>
               </Description>
            </def:Origin>
         </ItemDef>
         <ItemDef OID="IT.ADLB.AVAL.ADLB.PARAMCD.EQ.PHOS" Name="AVAL.ADLB.PARAMCD.EQ.PHOS"
                  DataType="float"
                  Length="7"
                  SignificantDigits="5"
                  SASFieldName="AVAL">
            <def:Origin Type="Predecessor">
               <Description>
                  <TranslatedText>LB.LBSTRESN</TranslatedText>
               </Description>
            </def:Origin>
         </ItemDef>
         <ItemDef OID="IT.ADLB.AVAL.ADLB.PARAMCD.EQ.PROT" Name="AVAL.ADLB.PARAMCD.EQ.PROT"
                  DataType="integer"
                  Length="2"
                  SASFieldName="AVAL">
            <def:Origin Type="Predecessor">
               <Description>
                  <TranslatedText>LB.LBSTRESN</TranslatedText>
               </Description>
            </def:Origin>
         </ItemDef>
         <ItemDef OID="IT.ADLB.AVAL.ADLB.PARAMCD.EQ.SODIUM" Name="AVAL.ADLB.PARAMCD.EQ.SODIUM"
                  DataType="integer"
                  Length="3"
                  SASFieldName="AVAL">
            <def:Origin Type="Predecessor">
               <Description>
                  <TranslatedText>LB.LBSTRESN</TranslatedText>
               </Description>
            </def:Origin>
         </ItemDef>
         <ItemDef OID="IT.ADLB.AVAL.ADLB.PARAMCD.EQ.URATE" Name="AVAL.ADLB.PARAMCD.EQ.URATE"
                  DataType="float"
                  Length="7"
                  SignificantDigits="3"
                  SASFieldName="AVAL">
            <def:Origin Type="Predecessor">
               <Description>
                  <TranslatedText>LB.LBSTRESN</TranslatedText>
               </Description>
            </def:Origin>
         </ItemDef>
         <ItemDef OID="IT.ADLB.AVAL.ADLB.PARAMCD.EQ.ANISO" Name="AVAL.ADLB.PARAMCD.EQ.ANISO"
                  DataType="integer"
                  Length="1"
                  SASFieldName="AVAL">
            <def:Origin Type="Predecessor">
               <Description>
                  <TranslatedText>LB.LBSTRESN</TranslatedText>
               </Description>
            </def:Origin>
         </ItemDef>
         <ItemDef OID="IT.ADLB.AVAL.ADLB.PARAMCD.EQ.BASO" Name="AVAL.ADLB.PARAMCD.EQ.BASO"
                  DataType="float"
                  Length="4"
                  SignificantDigits="2"
                  SASFieldName="AVAL">
            <def:Origin Type="Predecessor">
               <Description>
                  <TranslatedText>LB.LBSTRESN</TranslatedText>
               </Description>
            </def:Origin>
         </ItemDef>
         <ItemDef OID="IT.ADLB.AVAL.ADLB.PARAMCD.EQ.EOS" Name="AVAL.ADLB.PARAMCD.EQ.EOS"
                  DataType="float"
                  Length="4"
                  SignificantDigits="2"
                  SASFieldName="AVAL">
            <def:Origin Type="Predecessor">
               <Description>
                  <TranslatedText>LB.LBSTRESN</TranslatedText>
               </Description>
            </def:Origin>
         </ItemDef>
         <ItemDef OID="IT.ADLB.AVAL.ADLB.PARAMCD.EQ.HCT" Name="AVAL.ADLB.PARAMCD.EQ.HCT"
                  DataType="float"
                  Length="4"
                  SignificantDigits="2"
                  SASFieldName="AVAL">
            <def:Origin Type="Predecessor">
               <Description>
                  <TranslatedText>LB.LBSTRESN</TranslatedText>
               </Description>
            </def:Origin>
         </ItemDef>
         <ItemDef OID="IT.ADLB.AVAL.ADLB.PARAMCD.EQ.HGB" Name="AVAL.ADLB.PARAMCD.EQ.HGB"
                  DataType="float"
                  Length="8"
                  SignificantDigits="5"
                  SASFieldName="AVAL">
            <def:Origin Type="Predecessor">
               <Description>
                  <TranslatedText>LB.LBSTRESN</TranslatedText>
               </Description>
            </def:Origin>
         </ItemDef>
         <ItemDef OID="IT.ADLB.AVAL.ADLB.PARAMCD.EQ.LYM" Name="AVAL.ADLB.PARAMCD.EQ.LYM"
                  DataType="float"
                  Length="4"
                  SignificantDigits="2"
                  SASFieldName="AVAL">
            <def:Origin Type="Predecessor">
               <Description>
                  <TranslatedText>LB.LBSTRESN</TranslatedText>
               </Description>
            </def:Origin>
         </ItemDef>
         <ItemDef OID="IT.ADLB.AVAL.ADLB.PARAMCD.EQ.MACROCY" Name="AVAL.ADLB.PARAMCD.EQ.MACROCY"
                  DataType="integer"
                  Length="1"
                  SASFieldName="AVAL">
            <def:Origin Type="Predecessor">
               <Description>
                  <TranslatedText>LB.LBSTRESN</TranslatedText>
               </Description>
            </def:Origin>
         </ItemDef>
         <ItemDef OID="IT.ADLB.AVAL.ADLB.PARAMCD.EQ.MCH" Name="AVAL.ADLB.PARAMCD.EQ.MCH"
                  DataType="float"
                  Length="7"
                  SignificantDigits="5"
                  SASFieldName="AVAL">
            <def:Origin Type="Predecessor">
               <Description>
                  <TranslatedText>LB.LBSTRESN</TranslatedText>
               </Description>
            </def:Origin>
         </ItemDef>
         <ItemDef OID="IT.ADLB.AVAL.ADLB.PARAMCD.EQ.MCHC" Name="AVAL.ADLB.PARAMCD.EQ.MCHC"
                  DataType="float"
                  Length="7"
                  SignificantDigits="4"
                  SASFieldName="AVAL">
            <def:Origin Type="Predecessor">
               <Description>
                  <TranslatedText>LB.LBSTRESN</TranslatedText>
               </Description>
            </def:Origin>
         </ItemDef>
         <ItemDef OID="IT.ADLB.AVAL.ADLB.PARAMCD.EQ.MCV" Name="AVAL.ADLB.PARAMCD.EQ.MCV"
                  DataType="integer"
                  Length="3"
                  SASFieldName="AVAL">
            <def:Origin Type="Predecessor">
               <Description>
                  <TranslatedText>LB.LBSTRESN</TranslatedText>
               </Description>
            </def:Origin>
         </ItemDef>
         <ItemDef OID="IT.ADLB.AVAL.ADLB.PARAMCD.EQ.MICROCY" Name="AVAL.ADLB.PARAMCD.EQ.MICROCY"
                  DataType="integer"
                  Length="1"
                  SASFieldName="AVAL">
            <def:Origin Type="Predecessor">
               <Description>
                  <TranslatedText>LB.LBSTRESN</TranslatedText>
               </Description>
            </def:Origin>
         </ItemDef>
         <ItemDef OID="IT.ADLB.AVAL.ADLB.PARAMCD.EQ.MONO" Name="AVAL.ADLB.PARAMCD.EQ.MONO"
                  DataType="float"
                  Length="4"
                  SignificantDigits="2"
                  SASFieldName="AVAL">
            <def:Origin Type="Predecessor">
               <Description>
                  <TranslatedText>LB.LBSTRESN</TranslatedText>
               </Description>
            </def:Origin>
         </ItemDef>
         <ItemDef OID="IT.ADLB.AVAL.ADLB.PARAMCD.EQ.PLAT" Name="AVAL.ADLB.PARAMCD.EQ.PLAT"
                  DataType="integer"
                  Length="3"
                  SASFieldName="AVAL">
            <def:Origin Type="Predecessor">
               <Description>
                  <TranslatedText>LB.LBSTRESN</TranslatedText>
               </Description>
            </def:Origin>
         </ItemDef>
         <ItemDef OID="IT.ADLB.AVAL.ADLB.PARAMCD.EQ.POIKILO" Name="AVAL.ADLB.PARAMCD.EQ.POIKILO"
                  DataType="integer"
                  Length="1"
                  SASFieldName="AVAL">
            <def:Origin Type="Predecessor">
               <Description>
                  <TranslatedText>LB.LBSTRESN</TranslatedText>
               </Description>
            </def:Origin>
         </ItemDef>
         <ItemDef OID="IT.ADLB.AVAL.ADLB.PARAMCD.EQ.POLYCHR" Name="AVAL.ADLB.PARAMCD.EQ.POLYCHR"
                  DataType="integer"
                  Length="1"
                  SASFieldName="AVAL">
            <def:Origin Type="Predecessor">
               <Description>
                  <TranslatedText>LB.LBSTRESN</TranslatedText>
               </Description>
            </def:Origin>
         </ItemDef>
         <ItemDef OID="IT.ADLB.AVAL.ADLB.PARAMCD.EQ.RBC" Name="AVAL.ADLB.PARAMCD.EQ.RBC"
                  DataType="float"
                  Length="3"
                  SignificantDigits="1"
                  SASFieldName="AVAL">
            <def:Origin Type="Predecessor">
               <Description>
                  <TranslatedText>LB.LBSTRESN</TranslatedText>
               </Description>
            </def:Origin>
         </ItemDef>
         <ItemDef OID="IT.ADLB.AVAL.ADLB.PARAMCD.EQ.WBC" Name="AVAL.ADLB.PARAMCD.EQ.WBC"
                  DataType="float"
                  Length="5"
                  SignificantDigits="2"
                  SASFieldName="AVAL">
            <def:Origin Type="Predecessor">
               <Description>
                  <TranslatedText>LB.LBSTRESN</TranslatedText>
               </Description>
            </def:Origin>
         </ItemDef>
         <CodeList OID="CL.ADLB.AVISIT" Name="Analysis Visit (ADLB)" DataType="text"
                   def:IsNonStandard="Yes">
            <EnumeratedItem CodedValue="Baseline" OrderNumber="0"/>
            <EnumeratedItem CodedValue="Week 2" OrderNumber="2"/>
            <EnumeratedItem CodedValue="Week 4" OrderNumber="4"/>
            <EnumeratedItem CodedValue="Week 6" OrderNumber="6"/>
            <EnumeratedItem CodedValue="Week 8" OrderNumber="8"/>
            <EnumeratedItem CodedValue="Week 12" OrderNumber="12"/>
            <EnumeratedItem CodedValue="Week 16" OrderNumber="16"/>
            <EnumeratedItem CodedValue="Week 20" OrderNumber="20"/>
            <EnumeratedItem CodedValue="Week 24" OrderNumber="24"/>
            <EnumeratedItem CodedValue="Week 26" OrderNumber="26"/>
            <EnumeratedItem CodedValue="End of Treatment" OrderNumber="99"/>
         </CodeList>
         <CodeList OID="CL.ADLB.AVISITN" Name="Analysis Visit (N) (ADLB)" DataType="integer"
                   def:IsNonStandard="Yes">
            <CodeListItem CodedValue="0">
               <Decode>
                  <TranslatedText>Baseline</TranslatedText>
               </Decode>
            </CodeListItem>
            <CodeListItem CodedValue="2">
               <Decode>
                  <TranslatedText>Week 2</TranslatedText>
               </Decode>
            </CodeListItem>
            <CodeListItem CodedValue="4">
               <Decode>
                  <TranslatedText>Week 4</TranslatedText>
               </Decode>
            </CodeListItem>
            <CodeListItem CodedValue="6">
               <Decode>
                  <TranslatedText>Week 6</TranslatedText>
               </Decode>
            </CodeListItem>
            <CodeListItem CodedValue="8">
               <Decode>
                  <TranslatedText>Week 8</TranslatedText>
               </Decode>
            </CodeListItem>
            <CodeListItem CodedValue="12">
               <Decode>
                  <TranslatedText>Week 12</TranslatedText>
               </Decode>
            </CodeListItem>
            <CodeListItem CodedValue="16">
               <Decode>
                  <TranslatedText>Week 16</TranslatedText>
               </Decode>
            </CodeListItem>
            <CodeListItem CodedValue="20">
               <Decode>
                  <TranslatedText>Week 20</TranslatedText>
               </Decode>
            </CodeListItem>
            <CodeListItem CodedValue="24">
               <Decode>
                  <TranslatedText>Week 24</TranslatedText>
               </Decode>
            </CodeListItem>
            <CodeListItem CodedValue="26">
               <Decode>
                  <TranslatedText>Week 26</TranslatedText>
               </Decode>
            </CodeListItem>
            <CodeListItem CodedValue="99">
               <Decode>
                  <TranslatedText>End of Treatment</TranslatedText>
               </Decode>
            </CodeListItem>
         </CodeList>
         <CodeList OID="CL.ADLB.VISIT" Name="Visit (ADLB)" DataType="text" def:IsNonStandard="Yes">
            <EnumeratedItem CodedValue="SCREENING 1" OrderNumber="1"/>
            <EnumeratedItem CodedValue="UNSCHEDULED 1.1" OrderNumber="2"/>
            <EnumeratedItem CodedValue="UNSCHEDULED 1.2" OrderNumber="3"/>
            <EnumeratedItem CodedValue="UNSCHEDULED 1.3" OrderNumber="4"/>
            <EnumeratedItem CodedValue="WEEK 2" OrderNumber="5"/>
            <EnumeratedItem CodedValue="UNSCHEDULED 4.1" OrderNumber="6"/>
            <EnumeratedItem CodedValue="UNSCHEDULED 4.2" OrderNumber="7"/>
            <EnumeratedItem CodedValue="WEEK 4" OrderNumber="8"/>
            <EnumeratedItem CodedValue="UNSCHEDULED 5.1" OrderNumber="9"/>
            <EnumeratedItem CodedValue="UNSCHEDULED 6.1" OrderNumber="10"/>
            <EnumeratedItem CodedValue="WEEK 6" OrderNumber="11"/>
            <EnumeratedItem CodedValue="UNSCHEDULED 7.1" OrderNumber="12"/>
            <EnumeratedItem CodedValue="WEEK 8" OrderNumber="13"/>
            <EnumeratedItem CodedValue="UNSCHEDULED 8.2" OrderNumber="14"/>
            <EnumeratedItem CodedValue="WEEK 12" OrderNumber="15"/>
            <EnumeratedItem CodedValue="UNSCHEDULED 9.2" OrderNumber="16"/>
            <EnumeratedItem CodedValue="WEEK 16" OrderNumber="17"/>
            <EnumeratedItem CodedValue="WEEK 20" OrderNumber="18"/>
            <EnumeratedItem CodedValue="WEEK 24" OrderNumber="19"/>
            <EnumeratedItem CodedValue="UNSCHEDULED 12.1" OrderNumber="20"/>
            <EnumeratedItem CodedValue="WEEK 26" OrderNumber="21"/>
            <EnumeratedItem CodedValue="UNSCHEDULED 13.1" OrderNumber="22"/>
         </CodeList>
         <CodeList OID="CL.ADLB.VISITNUM" Name="Visit (N) (ADLB)" DataType="float"
                   def:IsNonStandard="Yes">
            <CodeListItem CodedValue="1">
               <Decode>
                  <TranslatedText>SCREENING 1</TranslatedText>
               </Decode>
            </CodeListItem>
            <CodeListItem CodedValue="1.1">
               <Decode>
                  <TranslatedText>UNSCHEDULED 1.1</TranslatedText>
               </Decode>
            </CodeListItem>
            <CodeListItem CodedValue="1.2">
               <Decode>
                  <TranslatedText>UNSCHEDULED 1.2</TranslatedText>
               </Decode>
            </CodeListItem>
            <CodeListItem CodedValue="1.3">
               <Decode>
                  <TranslatedText>UNSCHEDULED 1.3</TranslatedText>
               </Decode>
            </CodeListItem>
            <CodeListItem CodedValue="4">
               <Decode>
                  <TranslatedText>WEEK 2</TranslatedText>
               </Decode>
            </CodeListItem>
            <CodeListItem CodedValue="4.1">
               <Decode>
                  <TranslatedText>UNSCHEDULED 4.1</TranslatedText>
               </Decode>
            </CodeListItem>
            <CodeListItem CodedValue="4.2">
               <Decode>
                  <TranslatedText>UNSCHEDULED 4.2</TranslatedText>
               </Decode>
            </CodeListItem>
            <CodeListItem CodedValue="5">
               <Decode>
                  <TranslatedText>WEEK 4</TranslatedText>
               </Decode>
            </CodeListItem>
            <CodeListItem CodedValue="5.1">
               <Decode>
                  <TranslatedText>UNSCHEDULED 5.1</TranslatedText>
               </Decode>
            </CodeListItem>
            <CodeListItem CodedValue="6.1">
               <Decode>
                  <TranslatedText>UNSCHEDULED 6.1</TranslatedText>
               </Decode>
            </CodeListItem>
            <CodeListItem CodedValue="7">
               <Decode>
                  <TranslatedText>WEEK 6</TranslatedText>
               </Decode>
            </CodeListItem>
            <CodeListItem CodedValue="7.1">
               <Decode>
                  <TranslatedText>UNSCHEDULED 7.1</TranslatedText>
               </Decode>
            </CodeListItem>
            <CodeListItem CodedValue="8">
               <Decode>
                  <TranslatedText>WEEK 8</TranslatedText>
               </Decode>
            </CodeListItem>
            <CodeListItem CodedValue="8.2">
               <Decode>
                  <TranslatedText>UNSCHEDULED 8.2</TranslatedText>
               </Decode>
            </CodeListItem>
            <CodeListItem CodedValue="9">
               <Decode>
                  <TranslatedText>WEEK 12</TranslatedText>
               </Decode>
            </CodeListItem>
            <CodeListItem CodedValue="9.2">
               <Decode>
                  <TranslatedText>UNSCHEDULED 9.2</TranslatedText>
               </Decode>
            </CodeListItem>
            <CodeListItem CodedValue="10">
               <Decode>
                  <TranslatedText>WEEK 16</TranslatedText>
               </Decode>
            </CodeListItem>
            <CodeListItem CodedValue="11">
               <Decode>
                  <TranslatedText>WEEK 20</TranslatedText>
               </Decode>
            </CodeListItem>
            <CodeListItem CodedValue="12">
               <Decode>
                  <TranslatedText>WEEK 24</TranslatedText>
               </Decode>
            </CodeListItem>
            <CodeListItem CodedValue="12.1">
               <Decode>
                  <TranslatedText>UNSCHEDULED 12.1</TranslatedText>
               </Decode>
            </CodeListItem>
            <CodeListItem CodedValue="13">
               <Decode>
                  <TranslatedText>WEEK 26</TranslatedText>
               </Decode>
            </CodeListItem>
            <CodeListItem CodedValue="13.1">
               <Decode>
                  <TranslatedText>UNSCHEDULED 13.1</TranslatedText>
               </Decode>
            </CodeListItem>
         </CodeList>
         <CodeList OID="CL.ADLBCAT" Name="Laboratory Cateogry" DataType="text"
                   def:IsNonStandard="Yes">
            <CodeListItem CodedValue="CHEM" OrderNumber="1">
               <Decode>
                  <TranslatedText>Chemistry</TranslatedText>
               </Decode>
            </CodeListItem>
            <CodeListItem CodedValue="HEM" OrderNumber="2">
               <Decode>
                  <TranslatedText>Hematology</TranslatedText>
               </Decode>
            </CodeListItem>
         </CodeList>
         <CodeList OID="CL.ARM" Name="Planned Arm" DataType="text" def:IsNonStandard="Yes">
            <EnumeratedItem CodedValue="Xanomeline Low Dose" OrderNumber="1"/>
            <EnumeratedItem CodedValue="Xanomeline High Dose" OrderNumber="2"/>
            <EnumeratedItem CodedValue="Placebo" OrderNumber="3"/>
         </CodeList>
         <CodeList OID="CL.ARMN" Name="Planned Arm (N)" DataType="integer" def:IsNonStandard="Yes">
            <CodeListItem CodedValue="1" OrderNumber="1">
               <Decode>
                  <TranslatedText>Xanomeline Low Dose</TranslatedText>
               </Decode>
            </CodeListItem>
            <CodeListItem CodedValue="2" OrderNumber="2">
               <Decode>
                  <TranslatedText>Xanomeline High Dose</TranslatedText>
               </Decode>
            </CodeListItem>
            <CodeListItem CodedValue="3" OrderNumber="3">
               <Decode>
                  <TranslatedText>Placebo</TranslatedText>
               </Decode>
            </CodeListItem>
         </CodeList>
         <CodeList OID="CL.PARAM_ADLB" Name="PARAM_ADLB" DataType="text" def:IsNonStandard="Yes">
            <EnumeratedItem CodedValue="Albumin (g/L)" OrderNumber="1"/>
            <EnumeratedItem CodedValue="Alkaline Phosphatase (U/L)" OrderNumber="2"/>
            <EnumeratedItem CodedValue="Alanine Aminotransferase (U/L)" OrderNumber="3"/>
            <EnumeratedItem CodedValue="Aspartate Aminotransferase (U/L)" OrderNumber="4"/>
            <EnumeratedItem CodedValue="Bilirubin (umol/L)" OrderNumber="5"/>
            <EnumeratedItem CodedValue="Blood Urea Nitrogen (mmol/L)" OrderNumber="6"/>
            <EnumeratedItem CodedValue="Calcium (mmol/L)" OrderNumber="7"/>
            <EnumeratedItem CodedValue="Cholesterol (mmol/L)" OrderNumber="8"/>
            <EnumeratedItem CodedValue="Creatine Kinase (U/L)" OrderNumber="9"/>
            <EnumeratedItem CodedValue="Chloride (mmol/L)" OrderNumber="10"/>
            <EnumeratedItem CodedValue="Creatinine (umol/L)" OrderNumber="11"/>
            <EnumeratedItem CodedValue="Gamma Glutamyl Transferase (U/L)" OrderNumber="12"/>
            <EnumeratedItem CodedValue="Glucose (mmol/L)" OrderNumber="13"/>
            <EnumeratedItem CodedValue="Potassium (mmol/L)" OrderNumber="14"/>
            <EnumeratedItem CodedValue="Phosphate (mmol/L)" OrderNumber="15"/>
            <EnumeratedItem CodedValue="Protein (g/L)" OrderNumber="16"/>
            <EnumeratedItem CodedValue="Sodium (mmol/L)" OrderNumber="17"/>
            <EnumeratedItem CodedValue="Urate (umol/L)" OrderNumber="18"/>
            <EnumeratedItem CodedValue="Anisocytes" OrderNumber="19"/>
            <EnumeratedItem CodedValue="Basophils (GI/L)" OrderNumber="20"/>
            <EnumeratedItem CodedValue="Eosinophils (GI/L)" OrderNumber="21"/>
            <EnumeratedItem CodedValue="Hematocrit" OrderNumber="22"/>
            <EnumeratedItem CodedValue="Hemoglobin (mmol/L)" OrderNumber="23"/>
            <EnumeratedItem CodedValue="Lymphocytes (GI/L)" OrderNumber="24"/>
            <EnumeratedItem CodedValue="Macrocytes" OrderNumber="25"/>
            <EnumeratedItem CodedValue="Ery. Mean Corpuscular Hemoglobin (fmol(Fe))" OrderNumber="26"/>
            <EnumeratedItem CodedValue="Ery. Mean Corpuscular HGB Concentration (mmol/L)" OrderNumber="27"/>
            <EnumeratedItem CodedValue="Ery. Mean Corpuscular Volume (fL)" OrderNumber="28"/>
            <EnumeratedItem CodedValue="Microcytes" OrderNumber="29"/>
            <EnumeratedItem CodedValue="Monocytes (GI/L)" OrderNumber="30"/>
            <EnumeratedItem CodedValue="Platelet (GI/L)" OrderNumber="31"/>
            <EnumeratedItem CodedValue="Poikilocytes" OrderNumber="32"/>
            <EnumeratedItem CodedValue="Polychromasia" OrderNumber="33"/>
            <EnumeratedItem CodedValue="Erythrocytes (TI/L)" OrderNumber="34"/>
            <EnumeratedItem CodedValue="Leukocytes (GI/L)" OrderNumber="35"/>
         </CodeList>
         <CodeList OID="CL.PARAMCD_ADLB" Name="PARAMCD_ADLB" DataType="text"
                   def:IsNonStandard="Yes">
            <CodeListItem CodedValue="ALB" OrderNumber="1">
               <Decode>
                  <TranslatedText>Albumin (g/L)</TranslatedText>
               </Decode>
            </CodeListItem>
            <CodeListItem CodedValue="ALP" OrderNumber="2">
               <Decode>
                  <TranslatedText>Alkaline Phosphatase (U/L)</TranslatedText>
               </Decode>
            </CodeListItem>
            <CodeListItem CodedValue="ALT" OrderNumber="3">
               <Decode>
                  <TranslatedText>Alanine Aminotransferase (U/L)</TranslatedText>
               </Decode>
            </CodeListItem>
            <CodeListItem CodedValue="AST" OrderNumber="4">
               <Decode>
                  <TranslatedText>Aspartate Aminotransferase (U/L)</TranslatedText>
               </Decode>
            </CodeListItem>
            <CodeListItem CodedValue="BILI" OrderNumber="5">
               <Decode>
                  <TranslatedText>Bilirubin (umol/L)</TranslatedText>
               </Decode>
            </CodeListItem>
            <CodeListItem CodedValue="BUN" OrderNumber="6">
               <Decode>
                  <TranslatedText>Blood Urea Nitrogen (mmol/L)</TranslatedText>
               </Decode>
            </CodeListItem>
            <CodeListItem CodedValue="CA" OrderNumber="7">
               <Decode>
                  <TranslatedText>Calcium (mmol/L)</TranslatedText>
               </Decode>
            </CodeListItem>
            <CodeListItem CodedValue="CHOL" OrderNumber="8">
               <Decode>
                  <TranslatedText>Cholesterol (mmol/L)</TranslatedText>
               </Decode>
            </CodeListItem>
            <CodeListItem CodedValue="CK" OrderNumber="9">
               <Decode>
                  <TranslatedText>Creatine Kinase (U/L)</TranslatedText>
               </Decode>
            </CodeListItem>
            <CodeListItem CodedValue="CL" OrderNumber="10">
               <Decode>
                  <TranslatedText>Chloride (mmol/L)</TranslatedText>
               </Decode>
            </CodeListItem>
            <CodeListItem CodedValue="CREAT" OrderNumber="11">
               <Decode>
                  <TranslatedText>Creatinine (umol/L)</TranslatedText>
               </Decode>
            </CodeListItem>
            <CodeListItem CodedValue="GGT" OrderNumber="12">
               <Decode>
                  <TranslatedText>Gamma Glutamyl Transferase (U/L)</TranslatedText>
               </Decode>
            </CodeListItem>
            <CodeListItem CodedValue="GLUC" OrderNumber="13">
               <Decode>
                  <TranslatedText>Glucose (mmol/L)</TranslatedText>
               </Decode>
            </CodeListItem>
            <CodeListItem CodedValue="K" OrderNumber="14">
               <Decode>
                  <TranslatedText>Potassium (mmol/L)</TranslatedText>
               </Decode>
            </CodeListItem>
            <CodeListItem CodedValue="PHOS" OrderNumber="15">
               <Decode>
                  <TranslatedText>Phosphate (mmol/L)</TranslatedText>
               </Decode>
            </CodeListItem>
            <CodeListItem CodedValue="PROT" OrderNumber="16">
               <Decode>
                  <TranslatedText>Protein (g/L)</TranslatedText>
               </Decode>
            </CodeListItem>
            <CodeListItem CodedValue="SODIUM" OrderNumber="17">
               <Decode>
                  <TranslatedText>Sodium (mmol/L)</TranslatedText>
               </Decode>
            </CodeListItem>
            <CodeListItem CodedValue="URATE" OrderNumber="18">
               <Decode>
                  <TranslatedText>Urate (umol/L)</TranslatedText>
               </Decode>
            </CodeListItem>
            <CodeListItem CodedValue="ANISO" OrderNumber="19">
               <Decode>
                  <TranslatedText>Anisocytes</TranslatedText>
               </Decode>
            </CodeListItem>
            <CodeListItem CodedValue="BASO" OrderNumber="20">
               <Decode>
                  <TranslatedText>Basophils (GI/L)</TranslatedText>
               </Decode>
            </CodeListItem>
            <CodeListItem CodedValue="EOS" OrderNumber="21">
               <Decode>
                  <TranslatedText>Eosinophils (GI/L)</TranslatedText>
               </Decode>
            </CodeListItem>
            <CodeListItem CodedValue="HCT" OrderNumber="22">
               <Decode>
                  <TranslatedText>Hematocrit</TranslatedText>
               </Decode>
            </CodeListItem>
            <CodeListItem CodedValue="HGB" OrderNumber="23">
               <Decode>
                  <TranslatedText>Hemoglobin (mmol/L)</TranslatedText>
               </Decode>
            </CodeListItem>
            <CodeListItem CodedValue="LYM" OrderNumber="24">
               <Decode>
                  <TranslatedText>Lymphocytes (GI/L)</TranslatedText>
               </Decode>
            </CodeListItem>
            <CodeListItem CodedValue="MACROCY" OrderNumber="25">
               <Decode>
                  <TranslatedText>Macrocytes</TranslatedText>
               </Decode>
            </CodeListItem>
            <CodeListItem CodedValue="MCH" OrderNumber="26">
               <Decode>
                  <TranslatedText>Ery. Mean Corpuscular Hemoglobin (fmol(Fe))</TranslatedText>
               </Decode>
            </CodeListItem>
            <CodeListItem CodedValue="MCHC" OrderNumber="27">
               <Decode>
                  <TranslatedText>Ery. Mean Corpuscular HGB Concentration (mmol/L)</TranslatedText>
               </Decode>
            </CodeListItem>
            <CodeListItem CodedValue="MCV" OrderNumber="28">
               <Decode>
                  <TranslatedText>Ery. Mean Corpuscular Volume (fL)</TranslatedText>
               </Decode>
            </CodeListItem>
            <CodeListItem CodedValue="MICROCY" OrderNumber="29">
               <Decode>
                  <TranslatedText>Microcytes</TranslatedText>
               </Decode>
            </CodeListItem>
            <CodeListItem CodedValue="MONO" OrderNumber="30">
               <Decode>
                  <TranslatedText>Monocytes (GI/L)</TranslatedText>
               </Decode>
            </CodeListItem>
            <CodeListItem CodedValue="PLAT" OrderNumber="31">
               <Decode>
                  <TranslatedText>Platelet (GI/L)</TranslatedText>
               </Decode>
            </CodeListItem>
            <CodeListItem CodedValue="POIKILO" OrderNumber="32">
               <Decode>
                  <TranslatedText>Poikilocytes</TranslatedText>
               </Decode>
            </CodeListItem>
            <CodeListItem CodedValue="POLYCHR" OrderNumber="33">
               <Decode>
                  <TranslatedText>Polychromasia</TranslatedText>
               </Decode>
            </CodeListItem>
            <CodeListItem CodedValue="RBC" OrderNumber="34">
               <Decode>
                  <TranslatedText>Erythrocytes (TI/L)</TranslatedText>
               </Decode>
            </CodeListItem>
            <CodeListItem CodedValue="WBC" OrderNumber="35">
               <Decode>
                  <TranslatedText>Leukocytes (GI/L)</TranslatedText>
               </Decode>
            </CodeListItem>
         </CodeList>
         <CodeList OID="CL.PARAMN_ADLB" Name="PARAMN_ADLB" DataType="integer"
                   def:IsNonStandard="Yes">
            <CodeListItem CodedValue="1" OrderNumber="1">
               <Decode>
                  <TranslatedText>Hemoglobin (mmol/L)</TranslatedText>
               </Decode>
            </CodeListItem>
            <CodeListItem CodedValue="2" OrderNumber="2">
               <Decode>
                  <TranslatedText>Hematocrit</TranslatedText>
               </Decode>
            </CodeListItem>
            <CodeListItem CodedValue="3" OrderNumber="3">
               <Decode>
                  <TranslatedText>Ery. Mean Corpuscular Volume (fL)</TranslatedText>
               </Decode>
            </CodeListItem>
            <CodeListItem CodedValue="4" OrderNumber="4">
               <Decode>
                  <TranslatedText>Ery. Mean Corpuscular Hemoglobin (fmol(Fe))</TranslatedText>
               </Decode>
            </CodeListItem>
            <CodeListItem CodedValue="5" OrderNumber="5">
               <Decode>
                  <TranslatedText>Ery. Mean Corpuscular HGB Concentration (mmol/L)</TranslatedText>
               </Decode>
            </CodeListItem>
            <CodeListItem CodedValue="6" OrderNumber="6">
               <Decode>
                  <TranslatedText>Leukocytes (GI/L)</TranslatedText>
               </Decode>
            </CodeListItem>
            <CodeListItem CodedValue="7" OrderNumber="7">
               <Decode>
                  <TranslatedText>Lymphocytes (GI/L)</TranslatedText>
               </Decode>
            </CodeListItem>
            <CodeListItem CodedValue="8" OrderNumber="8">
               <Decode>
                  <TranslatedText>Monocytes (GI/L)</TranslatedText>
               </Decode>
            </CodeListItem>
            <CodeListItem CodedValue="9" OrderNumber="9">
               <Decode>
                  <TranslatedText>Eosinophils (GI/L)</TranslatedText>
               </Decode>
            </CodeListItem>
            <CodeListItem CodedValue="10" OrderNumber="10">
               <Decode>
                  <TranslatedText>Basophils (GI/L)</TranslatedText>
               </Decode>
            </CodeListItem>
            <CodeListItem CodedValue="11" OrderNumber="11">
               <Decode>
                  <TranslatedText>Platelet (GI/L)</TranslatedText>
               </Decode>
            </CodeListItem>
            <CodeListItem CodedValue="12" OrderNumber="12">
               <Decode>
                  <TranslatedText>Erythrocytes (TI/L)</TranslatedText>
               </Decode>
            </CodeListItem>
            <CodeListItem CodedValue="13" OrderNumber="13">
               <Decode>
                  <TranslatedText>Anisocytes</TranslatedText>
               </Decode>
            </CodeListItem>
            <CodeListItem CodedValue="18" OrderNumber="14">
               <Decode>
                  <TranslatedText>Sodium (mmol/L)</TranslatedText>
               </Decode>
            </CodeListItem>
            <CodeListItem CodedValue="19" OrderNumber="15">
               <Decode>
                  <TranslatedText>Potassium (mmol/L)</TranslatedText>
               </Decode>
            </CodeListItem>
            <CodeListItem CodedValue="20" OrderNumber="16">
               <Decode>
                  <TranslatedText>Chloride (mmol/L)</TranslatedText>
               </Decode>
            </CodeListItem>
            <CodeListItem CodedValue="21" OrderNumber="17">
               <Decode>
                  <TranslatedText>Bilirubin (umol/L)</TranslatedText>
               </Decode>
            </CodeListItem>
            <CodeListItem CodedValue="22" OrderNumber="18">
               <Decode>
                  <TranslatedText>Alkaline Phosphatase (U/L)</TranslatedText>
               </Decode>
            </CodeListItem>
            <CodeListItem CodedValue="23" OrderNumber="19">
               <Decode>
                  <TranslatedText>Gamma Glutamyl Transferase (U/L)</TranslatedText>
               </Decode>
            </CodeListItem>
            <CodeListItem CodedValue="24" OrderNumber="20">
               <Decode>
                  <TranslatedText>Alanine Aminotransferase (U/L)</TranslatedText>
               </Decode>
            </CodeListItem>
            <CodeListItem CodedValue="25" OrderNumber="21">
               <Decode>
                  <TranslatedText>Aspartate Aminotransferase (U/L)</TranslatedText>
               </Decode>
            </CodeListItem>
            <CodeListItem CodedValue="26" OrderNumber="22">
               <Decode>
                  <TranslatedText>Blood Urea Nitrogen (mmol/L)</TranslatedText>
               </Decode>
            </CodeListItem>
            <CodeListItem CodedValue="27" OrderNumber="23">
               <Decode>
                  <TranslatedText>Creatinine (umol/L)</TranslatedText>
               </Decode>
            </CodeListItem>
            <CodeListItem CodedValue="28" OrderNumber="24">
               <Decode>
                  <TranslatedText>Urate (umol/L)</TranslatedText>
               </Decode>
            </CodeListItem>
            <CodeListItem CodedValue="29" OrderNumber="25">
               <Decode>
                  <TranslatedText>Phosphate (mmol/L)</TranslatedText>
               </Decode>
            </CodeListItem>
            <CodeListItem CodedValue="30" OrderNumber="26">
               <Decode>
                  <TranslatedText>Calcium (mmol/L)</TranslatedText>
               </Decode>
            </CodeListItem>
            <CodeListItem CodedValue="31" OrderNumber="27">
               <Decode>
                  <TranslatedText>Glucose (mmol/L)</TranslatedText>
               </Decode>
            </CodeListItem>
            <CodeListItem CodedValue="32" OrderNumber="28">
               <Decode>
                  <TranslatedText>Protein (g/L)</TranslatedText>
               </Decode>
            </CodeListItem>
            <CodeListItem CodedValue="33" OrderNumber="29">
               <Decode>
                  <TranslatedText>Albumin (g/L)</TranslatedText>
               </Decode>
            </CodeListItem>
            <CodeListItem CodedValue="34" OrderNumber="30">
               <Decode>
                  <TranslatedText>Cholesterol (mmol/L)</TranslatedText>
               </Decode>
            </CodeListItem>
            <CodeListItem CodedValue="35" OrderNumber="31">
               <Decode>
                  <TranslatedText>Creatine Kinase (U/L)</TranslatedText>
               </Decode>
            </CodeListItem>
            <CodeListItem CodedValue="14" OrderNumber="32">
               <Decode>
                  <TranslatedText>Macrocytes</TranslatedText>
               </Decode>
            </CodeListItem>
            <CodeListItem CodedValue="15" OrderNumber="33">
               <Decode>
                  <TranslatedText>Microcytes</TranslatedText>
               </Decode>
            </CodeListItem>
            <CodeListItem CodedValue="16" OrderNumber="34">
               <Decode>
                  <TranslatedText>Poikilocytes</TranslatedText>
               </Decode>
            </CodeListItem>
            <CodeListItem CodedValue="17" OrderNumber="35">
               <Decode>
                  <TranslatedText>Polychromasia</TranslatedText>
               </Decode>
            </CodeListItem>
         </CodeList>
         <CodeList OID="CL.YN" Name="No Yes Response" DataType="text"
                   def:StandardOID="STD.SDTM 2020-12-18">
            <CodeListItem CodedValue="N" OrderNumber="1">
               <Decode>
                  <TranslatedText>No</TranslatedText>
               </Decode>
               <Alias Name="C49487" Context="nci:ExtCodeID"/>
            </CodeListItem>
            <CodeListItem CodedValue="Y" OrderNumber="2">
               <Decode>
                  <TranslatedText>Yes</TranslatedText>
               </Decode>
               <Alias Name="C49488" Context="nci:ExtCodeID"/>
            </CodeListItem>
            <Alias Name="C66742" Context="nci:ExtCodeID"/>
         </CodeList>
         <MethodDef OID="MT.ADLB.AVISIT" Name="Algorithm to derive ADLB.AVISIT" Type="Computation">
            <Description>
               <TranslatedText>Analysis Visit</TranslatedText>
            </Description>
         </MethodDef>
         <MethodDef OID="MT.ADLB.BASE" Name="Algorithm to derive ADLB.BASE" Type="Computation">
            <Description>
               <TranslatedText>ADLB.LBSTRESN when ADLB.ABLFL=Y</TranslatedText>
            </Description>
         </MethodDef>
         <MethodDef OID="MT.ADLB.PARAM" Name="Algorithm to derive ADLB.PARAM" Type="Computation">
            <Description>
               <TranslatedText>For PARAMN&lt;100L same as LB.LBTEST concatenated with LB.LBSTRESU.
For PARAMN&gt;100: LB.LBTEST concatenated with LB.LBSTRESU concatenated with " change from previous visit, relative to normal range"</TranslatedText>
            </Description>
         </MethodDef>
         <MethodDef OID="MT.ADLB.PARAMCD" Name="Algorithm to derive ADLB.PARAMCD"
                    Type="Computation">
            <Description>
               <TranslatedText>For PARAMN&lt;100: same as LBTESTCD.
For PARAMN&gt;100: _ + LBTESTCD</TranslatedText>
            </Description>
         </MethodDef>
         <MethodDef OID="MT.CHG" Name="Algorithm to derive CHG" Type="Computation">
            <Description>
               <TranslatedText>AVAL - BASE, for post baseline records.</TranslatedText>
            </Description>
         </MethodDef>
         <def:CommentDef OID="COM.ADLB.PARCAT1">
            <Description>
               <TranslatedText>Set to 'CHEM' or 'HEM'</TranslatedText>
            </Description>
         </def:CommentDef>
         <def:CommentDef OID="COM.AVISITN">
            <Description>
               <TranslatedText>Numeric code for AVISIT</TranslatedText>
            </Description>
         </def:CommentDef>
         <def:CommentDef OID="COM.PARAMN">
            <Description>
               <TranslatedText>Numeric code for Parameter</TranslatedText>
            </Description>
         </def:CommentDef>
         <def:CommentDef OID="COM.VLM">
            <Description>
               <TranslatedText>See parameter level metadata</TranslatedText>
            </Description>
         </def:CommentDef>
      </MetaDataVersion>
   </Study>
</ODM>